#time,accel_x,accel_y,accel_z
470.345175,-444.123565,6069.688724,-74924.139704
470.347718,-10214.842000,2220.617826,-76149.892501
470.350261,-4885.359217,6365.771101,-75843.454302
470.352803,8142.265362,-3552.988522,-74311.263306
470.355346,14656.077652,-1184.329507,-72779.072310
470.357889,-5033.400406,11695.253884,-75383.797003
470.360432,592.164754,6513.812290,-76609.549800
470.362975,11251.130318,10066.800811,-74617.701505
470.365518,-148.041188,9474.636058,-74770.920605
470.368061,11695.253884,7550.100608,-74617.701505
470.370604,9326.594869,6809.894666,-74004.825107
470.373147,8734.430116,8290.306550,-75383.797003
470.375690,296.082377,4441.235652,-74617.701505
470.378232,6365.771101,3552.988522,-75230.577904
470.380775,6809.894666,296.082377,-74924.139704
470.383318,5181.441594,14508.036463,-74158.044206
470.385861,4737.318029,14804.118840,-73238.729609
470.388404,33161.226202,2812.782580,-69867.909418
470.390947,37306.379477,-18505.148550,-69867.909418
470.393490,15100.201217,-15100.201217,-74004.825107
470.396033,-9178.553681,-18949.272115,-78141.740796
470.398576,-18209.066173,-8882.471304,-80899.684589
470.401118,-23982.672521,18209.066173,-79061.055394
470.403661,-25463.084405,30940.608376,-76303.111601
470.406204,17764.942608,11547.212695,-71553.319513
470.408747,9918.759623,3849.070898,-75383.797003
470.411290,-1776.494261,10658.965565,-74617.701505
470.413833,-6217.729913,13175.665768,-76456.330700
470.416376,10214.842000,4441.235652,-73698.386908
470.418919,14804.118840,-8734.430116,-73238.729609
470.421462,4737.318029,1480.411884,-75077.358804
470.424004,-18653.189738,9326.594869,-77682.083497
470.426547,5181.441594,3552.988522,-75843.454302
470.429090,10807.006753,5477.523971,-74770.920605
470.431633,-2516.700203,20429.683999,-75077.358804
470.434176,4293.194464,4589.276840,-74770.920605
470.436719,13471.748144,-3701.029710,-74158.044206
470.439262,18949.272115,-3849.070898,-73545.167808
470.441805,17024.736666,-5625.565159,-73698.386908
470.444348,-15100.201217,0.000000,-76149.892501
470.446890,11991.336260,-2220.617826,-74924.139704
470.449476,3404.947333,-3849.070898,-74617.701505
470.452062,-6513.812290,-888.247130,-75230.577904
470.454648,-11695.253884,4293.194464,-77528.864398
470.457234,3404.947333,-740.205942,-75230.577904
470.459819,18357.107362,-4737.318029,-73545.167808
470.462405,-4589.276840,2812.782580,-74617.701505
470.464991,-4589.276840,0.000000,-76303.111601
470.467577,5921.647536,1628.453072,-75077.358804
470.470162,5477.523971,-740.205942,-75230.577904
470.472748,-5033.400406,5329.482782,-75690.235202
470.475334,-9326.594869,15248.242405,-74924.139704
470.477920,-740.205942,1776.494261,-74770.920605
470.480505,5033.400406,-592.164754,-73698.386908
470.483091,444.123565,5921.647536,-75077.358804
470.485677,-3701.029710,-6365.771101,-75690.235202
470.488263,-3108.864956,-592.164754,-77375.645298
470.490848,-17468.860231,14804.118840,-77222.426198
470.493434,-9474.636058,4589.276840,-76609.549800
470.496020,3404.947333,6217.729913,-74617.701505
470.498606,-12139.377449,18357.107362,-75996.673402
470.501192,-9326.594869,17616.901420,-76303.111601
470.503777,12583.501014,3552.988522,-75230.577904
470.506363,4589.276840,-3256.906145,-74004.825107
470.508949,296.082377,4293.194464,-74464.482406
470.511535,-3701.029710,-1036.288319,-75383.797003
470.514120,7105.977043,-6513.812290,-75077.358804
470.516706,4293.194464,-1924.535449,-74617.701505
470.519292,-3997.112087,-444.123565,-76609.549800
470.521878,1776.494261,-3256.906145,-74924.139704
470.524463,8438.347739,-1628.453072,-74311.263306
470.527049,-13471.748144,7846.182985,-75230.577904
470.529635,3997.112087,9770.718434,-74617.701505
470.532221,-5329.482782,4145.153275,-75996.673402
470.534806,5773.606348,-9030.512492,-75077.358804
470.537392,-7105.977043,1628.453072,-77222.426198
470.539978,-5921.647536,8438.347739,-74617.701505
470.542564,5033.400406,-5477.523971,-74311.263306
470.545150,8142.265362,9770.718434,-73391.948708
470.547735,6513.812290,6957.935855,-75077.358804
470.550321,444.123565,10066.800811,-75383.797003
470.552929,2220.617826,2220.617826,-75383.797003
470.555538,18061.024985,7550.100608,-72472.634111
470.558146,296.082377,7994.224174,-74311.263306
470.560754,-5329.482782,8438.347739,-75843.454302
470.563363,6365.771101,-5033.400406,-75690.235202
470.565971,-2220.617826,3849.070898,-75996.673402
470.568579,3849.070898,5181.441594,-74770.920605
470.571188,5181.441594,4589.276840,-74464.482406
470.573796,12287.418637,4737.318029,-73851.606007
470.576404,2368.659014,7698.141797,-74617.701505
470.579013,3701.029710,5921.647536,-75077.358804
470.581621,1036.288319,740.205942,-75690.235202
470.584229,6513.812290,15544.324782,-73851.606007
470.586838,10066.800811,6661.853478,-71859.757712
470.589446,33753.390955,-10658.965565,-70940.443115
470.592054,14359.995275,-6957.935855,-73238.729609
470.594663,6365.771101,-13915.871710,-74617.701505
470.597271,13471.748144,-12879.583391,-74924.139704
470.599880,17468.860231,5033.400406,-73238.729609
470.602488,1480.411884,1036.288319,-75537.016103
470.605096,2072.576638,5921.647536,-75843.454302
470.607705,9326.594869,4737.318029,-74311.263306
470.610313,10807.006753,7550.100608,-74004.825107
470.612921,3849.070898,10807.006753,-74311.263306
470.615530,3256.906145,1332.370696,-75077.358804
470.618138,8586.388927,5033.400406,-74924.139704
470.620746,-6365.771101,3997.112087,-76149.892501
470.623355,2220.617826,148.041188,-75996.673402
470.625963,1184.329507,7105.977043,-74770.920605
470.628571,-740.205942,15100.201217,-75077.358804
470.631180,9474.636058,2220.617826,-73698.386908
470.633788,7994.224174,3404.947333,-75383.797003
470.636396,14063.912898,9030.512492,-74158.044206
470.639005,10510.924376,-3108.864956,-74924.139704
470.641613,-7846.182985,-3701.029710,-75843.454302
470.644221,2812.782580,-5921.647536,-75383.797003
470.646830,-4145.153275,-444.123565,-76149.892501
470.649438,-13323.706956,1628.453072,-77528.864398
470.652046,-6217.729913,3849.070898,-76456.330700
470.654655,3108.864956,-2960.823768,-75230.577904
470.657276,8290.306550,0.000000,-73851.606007
470.659898,-6809.894666,740.205942,-74617.701505
470.662520,2960.823768,-6217.729913,-75383.797003
470.665142,-1776.494261,1184.329507,-76149.892501
470.667764,3552.988522,1184.329507,-74924.139704
470.670386,-3552.988522,3404.947333,-74464.482406
470.673008,13323.706956,-4737.318029,-73085.510509
470.675630,-5773.606348,-4737.318029,-74770.920605
470.678252,-3108.864956,-740.205942,-75383.797003
470.680874,-2220.617826,4441.235652,-76762.768900
470.683496,1184.329507,888.247130,-75537.016103
470.686118,-13175.665768,22206.178260,-75843.454302
470.688740,3997.112087,13915.871710,-74158.044206
470.691362,11251.130318,7105.977043,-71706.538613
470.693984,23242.466579,-5181.441594,-72625.853210
470.696606,6957.935855,-10955.047942,-73238.729609
470.699228,444.123565,1184.329507,-75996.673402
470.701850,-444.123565,2072.576638,-75230.577904
470.704472,3701.029710,-9474.636058,-74617.701505
470.707093,-4885.359217,-3108.864956,-75537.016103
470.709715,-16432.571912,6513.812290,-76762.768900
470.712337,-4441.235652,2960.823768,-76609.549800
470.714959,-592.164754,1036.288319,-75383.797003
470.717581,740.205942,4145.153275,-75383.797003
470.720203,6365.771101,-2812.782580,-75077.358804
470.722825,-3701.029710,-1628.453072,-76149.892501
470.725447,592.164754,2812.782580,-75077.358804
470.728069,-5773.606348,296.082377,-76149.892501
470.730691,-3404.947333,740.205942,-74770.920605
470.733313,10955.047942,-740.205942,-74770.920605
470.735935,-11251.130318,10214.842000,-76149.892501
470.738557,5477.523971,4441.235652,-74924.139704
470.741179,13027.624579,4441.235652,-73851.606007
470.743801,4737.318029,9030.512492,-74311.263306
470.746423,3701.029710,-2220.617826,-75843.454302
470.749045,-1184.329507,6809.894666,-75996.673402
470.751667,8142.265362,7846.182985,-75077.358804
470.754289,-7698.141797,10955.047942,-75230.577904
470.756910,1036.288319,8586.388927,-75383.797003
470.759532,11843.295072,-4441.235652,-74924.139704
470.762159,16876.695478,-592.164754,-72779.072310
470.764785,7105.977043,7105.977043,-73851.606007
470.767412,9918.759623,4293.194464,-74464.482406
470.770039,9326.594869,2072.576638,-74924.139704
470.772665,6661.853478,2812.782580,-75230.577904
470.775292,1036.288319,7254.018232,-75690.235202
470.777918,-2368.659014,1924.535449,-77375.645298
470.780545,-10214.842000,16876.695478,-76149.892501
470.783171,-9622.677246,19689.478057,-75383.797003
470.785798,6661.853478,9622.677246,-74158.044206
470.788424,14063.912898,-2220.617826,-74464.482406
470.791051,-11103.089130,-2960.823768,-75690.235202
470.793677,-18209.066173,4293.194464,-77222.426198
470.796304,-4293.194464,8438.347739,-77069.207099
470.798930,12287.418637,-740.205942,-75077.358804
470.801557,8734.430116,3256.906145,-73851.606007
470.804183,1036.288319,10955.047942,-75077.358804
470.806810,5625.565159,6513.812290,-74311.263306
470.809436,6069.688724,10510.924376,-74464.482406
470.812063,3849.070898,12139.377449,-74311.263306
470.814689,5329.482782,3701.029710,-75690.235202
470.817316,3108.864956,8142.265362,-74770.920605
470.819942,4885.359217,2960.823768,-74158.044206
470.822569,14063.912898,3849.070898,-73085.510509
470.825195,3552.988522,148.041188,-73545.167808
470.827822,10362.883188,1332.370696,-74617.701505
470.830448,-148.041188,3108.864956,-77682.083497
470.833075,-2220.617826,-1184.329507,-75996.673402
470.835701,4885.359217,-5921.647536,-75077.358804
470.838328,-9770.718434,9770.718434,-74617.701505
470.840955,-13767.830521,3701.029710,-77069.207099
470.843581,-1628.453072,3849.070898,-74924.139704
470.846208,9770.718434,-2664.741391,-75077.358804
470.848834,-6365.771101,9474.636058,-75383.797003
470.851461,592.164754,3701.029710,-74617.701505
470.854087,6069.688724,-3997.112087,-73238.729609
470.856714,8882.471304,-1332.370696,-74770.920605
470.859340,-1184.329507,1184.329507,-76762.768900
470.861967,-11991.336260,8882.471304,-77069.207099
470.864593,-12139.377449,10955.047942,-76303.111601
470.867221,15840.407159,-148.041188,-72012.976812
470.869849,5033.400406,-1184.329507,-72166.195912
470.872477,-3256.906145,12139.377449,-75996.673402
470.875105,-9918.759623,16284.530724,-75383.797003
470.877733,11547.212695,3404.947333,-72625.853210
470.880361,28571.949361,-11843.295072,-70480.785816
470.882989,29312.155303,-18061.024985,-73698.386908
470.885617,-11103.089130,1480.411884,-78448.178995
470.888245,-14804.118840,6661.853478,-76303.111601
470.890873,-6069.688724,2960.823768,-76915.987999
470.893501,3404.947333,-4293.194464,-73698.386908
470.896129,16284.530724,-2960.823768,-71553.319513
470.898757,-14359.995275,11103.089130,-75537.016103
470.901385,-13915.871710,9326.594869,-77375.645298
470.904013,592.164754,-4885.359217,-75843.454302
470.906641,15396.283594,-3849.070898,-73085.510509
470.909269,8142.265362,-9918.759623,-74004.825107
470.911897,-6069.688724,-444.123565,-75843.454302
470.914525,3552.988522,-1480.411884,-75077.358804
470.917153,0.000000,-3849.070898,-74924.139704
470.919781,1036.288319,-2516.700203,-75230.577904
470.922409,13175.665768,2812.782580,-75077.358804
470.925037,-11695.253884,7994.224174,-75537.016103
470.927665,10955.047942,3701.029710,-74158.044206
470.930293,8882.471304,6957.935855,-73851.606007
470.932921,12583.501014,4441.235652,-74770.920605
470.935549,-1332.370696,0.000000,-76609.549800
470.938177,0.000000,7254.018232,-75843.454302
470.940805,7254.018232,6365.771101,-75690.235202
470.943433,-2664.741391,12287.418637,-74617.701505
470.946061,-592.164754,7994.224174,-74617.701505
470.948689,9918.759623,-7550.100608,-75230.577904
470.951317,-6957.935855,5625.565159,-76762.768900
470.953945,-2220.617826,7550.100608,-74770.920605
470.956573,3701.029710,3108.864956,-75537.016103
470.959201,9474.636058,5329.482782,-73545.167808
470.961829,4737.318029,8438.347739,-75230.577904
470.964457,-1184.329507,-740.205942,-76149.892501
470.967085,4589.276840,-4145.153275,-74924.139704
470.969713,12287.418637,-6661.853478,-75690.235202
470.972338,-9622.677246,0.000000,-76915.987999
470.974963,-12139.377449,8438.347739,-77988.521696
470.977588,-14656.077652,10362.883188,-77069.207099
470.980213,-1924.535449,22798.343014,-74924.139704
470.982838,12139.377449,9918.759623,-73698.386908
470.985463,-2960.823768,15100.201217,-76456.330700
470.988088,-1332.370696,7254.018232,-75996.673402
470.990713,8734.430116,3849.070898,-74770.920605
470.993338,12139.377449,-6069.688724,-72779.072310
470.995963,16136.489536,-2664.741391,-74311.263306
470.998588,-15988.448347,8586.388927,-76762.768900
471.001213,3997.112087,-2220.617826,-76456.330700
471.003837,5033.400406,6365.771101,-75383.797003
471.006462,1776.494261,12583.501014,-73851.606007
471.009087,5921.647536,5329.482782,-73851.606007
471.011712,3256.906145,-1480.411884,-74311.263306
471.014337,14952.160028,-2220.617826,-73545.167808
471.016962,3701.029710,5181.441594,-76609.549800
471.019587,-10807.006753,740.205942,-75843.454302
471.022212,11695.253884,-8142.265362,-75230.577904
471.024837,-5033.400406,-592.164754,-75077.358804
471.027462,-13915.871710,6217.729913,-76303.111601
471.030087,-13323.706956,1924.535449,-77069.207099
471.032712,7846.182985,-1184.329507,-75077.358804
471.035337,-1776.494261,-296.082377,-75690.235202
471.037962,-10807.006753,10510.924376,-76303.111601
471.040587,3108.864956,-5033.400406,-74617.701505
471.043212,10510.924376,-1776.494261,-73391.948708
471.045837,-5181.441594,6957.935855,-75843.454302
471.048462,-6661.853478,8734.430116,-75690.235202
471.051087,2072.576638,-5181.441594,-76149.892501
471.053712,6661.853478,-4145.153275,-75077.358804
471.056337,-9770.718434,2812.782580,-74617.701505
471.058962,1628.453072,-3256.906145,-75230.577904
471.061587,21317.931130,-29312.155303,-74464.482406
471.064212,5477.523971,-19393.395680,-75537.016103
471.066837,-4441.235652,-23538.548956,-79061.055394
471.069462,-18209.066173,-2072.576638,-78907.836294
471.072086,-20725.766376,-7846.182985,-77988.521696
471.074711,10362.883188,-6809.894666,-73391.948708
471.077333,2368.659014,-11695.253884,-75383.797003
471.079955,-16876.695478,7402.059420,-76609.549800
471.082577,-3404.947333,888.247130,-75996.673402
471.085199,-4737.318029,888.247130,-75077.358804
471.087821,15840.407159,-8586.388927,-73238.729609
471.090443,-1184.329507,1776.494261,-74311.263306
471.093065,-15100.201217,4737.318029,-76303.111601
471.095687,10658.965565,3552.988522,-74158.044206
471.098309,13915.871710,1924.535449,-73238.729609
471.100931,-6217.729913,5773.606348,-75996.673402
471.103553,-18949.272115,10066.800811,-77222.426198
471.106175,19097.313304,-3552.988522,-74464.482406
471.108797,-888.247130,3256.906145,-73698.386908
471.111419,2960.823768,10658.965565,-74464.482406
471.114041,3997.112087,8142.265362,-75383.797003
471.116663,17468.860231,2516.700203,-73851.606007
471.119285,16432.571912,-8142.265362,-74311.263306
471.121907,6809.894666,5329.482782,-73391.948708
471.124529,740.205942,4737.318029,-74924.139704
471.127151,-740.205942,7402.059420,-76303.111601
471.129773,1924.535449,3552.988522,-75077.358804
471.132394,10066.800811,-296.082377,-74770.920605
471.135016,5329.482782,-592.164754,-74924.139704
471.137638,-2960.823768,10510.924376,-75230.577904
471.140260,6661.853478,3701.029710,-74617.701505
471.142882,11103.089130,5181.441594,-74311.263306
471.145504,6069.688724,11547.212695,-74924.139704
471.148126,-1924.535449,148.041188,-74311.263306
471.150748,1628.453072,740.205942,-76915.987999
471.153370,-10066.800811,4145.153275,-76456.330700
471.155992,-9030.512492,16728.654289,-76915.987999
471.158614,-5477.523971,8142.265362,-75077.358804
471.161236,10362.883188,12435.459826,-72779.072310
471.163858,12731.542202,6217.729913,-73238.729609
471.166480,-740.205942,8290.306550,-75230.577904
471.169102,3997.112087,9030.512492,-75996.673402
471.171724,10066.800811,296.082377,-75383.797003
471.174346,6513.812290,10658.965565,-74770.920605
471.176968,16136.489536,2960.823768,-72166.195912
471.179590,3552.988522,4589.276840,-74004.825107
471.182208,4589.276840,8438.347739,-74004.825107
471.184827,3108.864956,3552.988522,-77222.426198
471.187446,-740.205942,6809.894666,-76609.549800
471.190065,-4293.194464,1776.494261,-75537.016103
471.192683,8142.265362,1776.494261,-74464.482406
471.195302,2960.823768,9178.553681,-74158.044206
471.197921,14359.995275,1776.494261,-74311.263306
471.200540,-10658.965565,-1480.411884,-76456.330700
471.203158,11103.089130,444.123565,-74924.139704
471.205777,1036.288319,-6809.894666,-75383.797003
471.208396,-5773.606348,-2072.576638,-74617.701505
471.211015,-14063.912898,592.164754,-76762.768900
471.213633,1776.494261,-5625.565159,-75230.577904
471.216252,14211.954086,-10658.965565,-74770.920605
471.218871,3552.988522,-2812.782580,-74158.044206
471.221490,-2516.700203,-2072.576638,-76456.330700
471.224108,-9030.512492,5625.565159,-75690.235202
471.226727,7254.018232,1628.453072,-74311.263306
471.229346,-2812.782580,2664.741391,-75383.797003
471.231965,-1776.494261,-1036.288319,-76303.111601
471.234583,-10658.965565,-444.123565,-75690.235202
471.237202,19393.395680,-15692.365970,-72932.291410
471.239821,24870.919651,-29016.072926,-72319.415011
471.242440,6957.935855,-18209.066173,-76149.892501
471.245058,-35974.008781,-3404.947333,-77988.521696
471.247677,-51962.457128,27831.743419,-82125.437386
471.250296,-34493.596897,22206.178260,-79061.055394
471.252915,33309.267390,-592.164754,-71400.100414
471.255533,8438.347739,7846.182985,-72472.634111
471.258152,-15100.201217,15248.242405,-75077.358804
471.260771,-7402.059420,148.041188,-76149.892501
471.263390,11251.130318,-13027.624579,-74617.701505
471.266004,296.082377,-7254.018232,-76303.111601
471.268619,-6217.729913,-5033.400406,-77988.521696
471.271233,-22206.178260,2664.741391,-78294.959896
471.273848,4293.194464,8142.265362,-74464.482406
471.276463,-1184.329507,-1184.329507,-74004.825107
471.279077,6957.935855,444.123565,-73698.386908
471.281692,2220.617826,-1036.288319,-76915.987999
471.284306,-8290.306550,2368.659014,-77222.426198
471.286921,1628.453072,-9030.512492,-75843.454302
471.289536,-3108.864956,15692.365970,-74004.825107
471.292150,10066.800811,6217.729913,-74770.920605
471.294765,2516.700203,11399.171507,-74770.920605
471.297379,9178.553681,3256.906145,-75077.358804
471.299994,14211.954086,3552.988522,-73698.386908
471.302609,5773.606348,7105.977043,-74311.263306
471.305223,-1480.411884,2960.823768,-75077.358804
471.307838,1628.453072,5181.441594,-75077.358804
471.310452,1036.288319,6217.729913,-75383.797003
471.313067,19689.478057,888.247130,-73085.510509
471.315682,11695.253884,6957.935855,-74158.044206
471.318296,1924.535449,11843.295072,-75077.358804
471.320911,5773.606348,5181.441594,-74464.482406
471.323525,14211.954086,-4441.235652,-73085.510509
471.326140,12139.377449,-10658.965565,-75690.235202
471.328754,-20133.601622,25611.125593,-78907.836294
471.331369,-44560.397708,27979.784608,-78601.398095
471.333984,62473.381505,-7254.018232,-65730.993728
471.336598,46632.974346,-5329.482782,-70327.566716
471.339213,-39971.120868,18357.107362,-77528.864398
471.341827,-11103.089130,8882.471304,-76149.892501
471.344442,5181.441594,5329.482782,-77069.207099
471.347057,21317.931130,-10510.924376,-73851.606007
471.349671,23686.590144,-1332.370696,-74158.044206
471.352286,-19097.313304,9918.759623,-76303.111601
471.354900,1628.453072,-148.041188,-75537.016103
471.357515,10510.924376,-1036.288319,-74004.825107
471.360130,11103.089130,6513.812290,-73238.729609
471.362744,-2960.823768,5329.482782,-77375.645298
471.365359,-5033.400406,-2960.823768,-76915.987999
471.367973,14952.160028,296.082377,-74004.825107
471.370584,-1924.535449,12139.377449,-73391.948708
471.373194,-4589.276840,5625.565159,-74924.139704
471.375804,-2664.741391,-1924.535449,-77069.207099
471.378414,-1480.411884,6217.729913,-76762.768900
471.381025,-4737.318029,1776.494261,-75230.577904
471.383635,-4589.276840,4145.153275,-74311.263306
471.386245,1924.535449,1332.370696,-74158.044206
471.388856,-7698.141797,7994.224174,-74311.263306
471.391466,10214.842000,-740.205942,-73391.948708
471.394076,5773.606348,-4885.359217,-75230.577904
471.396686,5181.441594,-1332.370696,-75843.454302
471.399297,-9030.512492,3849.070898,-76609.549800
471.401907,1480.411884,3997.112087,-74004.825107
471.404517,1480.411884,-2516.700203,-73238.729609
471.407127,888.247130,-4737.318029,-75383.797003
471.409738,-4737.318029,5477.523971,-76915.987999
471.412348,-6217.729913,11695.253884,-75230.577904
471.414958,6661.853478,9474.636058,-73545.167808
471.417568,11547.212695,-888.247130,-70787.224015
471.420179,21465.972318,-4885.359217,-72472.634111
471.422789,5329.482782,-12139.377449,-75537.016103
471.425399,-10362.883188,-4589.276840,-77682.083497
471.428010,2072.576638,-7105.977043,-75537.016103
471.430620,0.000000,-740.205942,-75690.235202
471.433230,-3997.112087,3849.070898,-74311.263306
471.435840,-8882.471304,5181.441594,-75077.358804
471.438451,-888.247130,3849.070898,-75230.577904
471.441061,-5921.647536,3701.029710,-75996.673402
471.443671,16432.571912,3552.988522,-73851.606007
471.446281,2664.741391,6661.853478,-73391.948708
471.448892,1628.453072,4145.153275,-74770.920605
471.451502,-3849.070898,-592.164754,-74770.920605
471.454112,21762.054695,-3256.906145,-74311.263306
471.456722,-10807.006753,7105.977043,-75383.797003
471.459333,7402.059420,3849.070898,-75690.235202
471.461943,6069.688724,9770.718434,-74004.825107
471.464553,9622.677246,5625.565159,-73238.729609
471.467164,-3552.988522,7550.100608,-75996.673402
471.469774,296.082377,6809.894666,-75690.235202
471.472384,12139.377449,9622.677246,-74617.701505
471.474989,-888.247130,8586.388927,-75690.235202
471.477593,1184.329507,5477.523971,-74924.139704
471.480198,444.123565,9918.759623,-75690.235202
471.482803,-8586.388927,10658.965565,-75383.797003
471.485407,13323.706956,6957.935855,-74004.825107
471.488012,16284.530724,4885.359217,-73085.510509
471.490617,6513.812290,8438.347739,-75383.797003
471.493221,296.082377,12879.583391,-74311.263306
471.495826,5033.400406,3849.070898,-74464.482406
471.498430,21614.013506,-12139.377449,-71246.881314
471.501035,17616.901420,5181.441594,-73085.510509
471.503640,-8290.306550,11547.212695,-75843.454302
471.506244,-7550.100608,20429.683999,-75077.358804
471.508849,17912.983796,8438.347739,-72472.634111
471.511454,6365.771101,4293.194464,-73851.606007
471.514058,2220.617826,10362.883188,-75230.577904
471.516663,-2072.576638,14211.954086,-76303.111601
471.519268,18505.148550,10066.800811,-74311.263306
471.521872,14656.077652,6365.771101,-74158.044206
471.524477,4145.153275,13619.789333,-73391.948708
471.527082,-444.123565,6809.894666,-74617.701505
471.529686,4441.235652,15544.324782,-74158.044206
471.532291,11843.295072,-2368.659014,-74464.482406
471.534895,1924.535449,2516.700203,-75230.577904
471.537500,11547.212695,5921.647536,-74004.825107
471.540105,6809.894666,296.082377,-74464.482406
471.542709,-4737.318029,-1036.288319,-74924.139704
471.545314,2072.576638,-5329.482782,-74924.139704
471.547919,-3404.947333,1628.453072,-76303.111601
471.550523,-10658.965565,-1036.288319,-76762.768900
471.553128,-7402.059420,1924.535449,-76762.768900
471.555733,2220.617826,2812.782580,-74770.920605
471.558337,-10955.047942,10214.842000,-75690.235202
471.560942,888.247130,7402.059420,-74004.825107
471.563546,7105.977043,-4885.359217,-74617.701505
471.566151,4589.276840,1036.288319,-75230.577904
471.568756,-2220.617826,1776.494261,-75383.797003
471.571360,-6957.935855,7698.141797,-75230.577904
471.573965,1480.411884,-1480.411884,-73698.386908
471.576570,-2072.576638,-9622.677246,-74924.139704
471.579171,-5329.482782,-3108.864956,-77375.645298
471.581771,-21169.889941,19097.313304,-80133.589091
471.584371,-16876.695478,13027.624579,-75690.235202
471.586971,31384.731941,-8586.388927,-69714.690318
471.589572,30940.608376,-20133.601622,-72625.853210
471.592172,-16580.613101,2664.741391,-77835.302597
471.594772,-9918.759623,-1184.329507,-77682.083497
471.597372,6661.853478,-10955.047942,-75077.358804
471.599972,888.247130,-7994.224174,-74311.263306
471.602572,-2220.617826,-3552.988522,-74311.263306
471.605172,-15396.283594,5477.523971,-77222.426198
471.607773,-20133.601622,5329.482782,-77375.645298
471.610373,15248.242405,2368.659014,-74464.482406
471.612973,740.205942,5181.441594,-74770.920605
471.615573,-2664.741391,6809.894666,-75690.235202
471.618173,-8882.471304,3404.947333,-75690.235202
471.620773,30052.361245,-5921.647536,-71859.757712
471.623373,-10214.842000,6809.894666,-74004.825107
471.625974,10362.883188,7105.977043,-75077.358804
471.628574,4589.276840,6069.688724,-75537.016103
471.631174,15988.448347,3701.029710,-74004.825107
471.633774,9622.677246,-10362.883188,-74311.263306
471.636374,-1332.370696,11695.253884,-75383.797003
471.638974,2220.617826,5921.647536,-75996.673402
471.641574,3849.070898,9326.594869,-75077.358804
471.644175,2516.700203,-444.123565,-75383.797003
471.646775,-148.041188,15100.201217,-76303.111601
471.649375,-5625.565159,8290.306550,-75077.358804
471.651975,23390.507767,296.082377,-71859.757712
471.654575,8438.347739,6957.935855,-73545.167808
471.657175,2812.782580,15248.242405,-75230.577904
471.659775,-5181.441594,13323.706956,-76915.987999
471.662376,-3552.988522,15248.242405,-75230.577904
471.664976,-18505.148550,29756.278868,-77375.645298
471.667576,6365.771101,18357.107362,-72319.415011
471.670176,35085.761651,3701.029710,-69561.471218
471.672776,20577.725188,7402.059420,-72319.415011
471.675376,-2368.659014,8438.347739,-75843.454302
471.677976,10807.006753,740.205942,-74924.139704
471.680577,-1628.453072,9030.512492,-75843.454302
471.683109,12435.459826,13323.706956,-74464.482406
471.685642,6957.935855,6957.935855,-75077.358804
471.688174,6513.812290,13619.789333,-74004.825107
471.690707,-740.205942,8142.265362,-75843.454302
471.693239,1036.288319,16728.654289,-74158.044206
471.695771,21614.013506,-6217.729913,-73851.606007
471.698304,9178.553681,-592.164754,-74158.044206
471.700836,12435.459826,-1332.370696,-73698.386908
471.703369,7254.018232,-1776.494261,-75690.235202
471.705901,-14211.954086,1036.288319,-75690.235202
471.708434,5329.482782,-5329.482782,-75996.673402
471.710966,-5773.606348,6661.853478,-75383.797003
471.713499,-12731.542202,1776.494261,-76762.768900
471.716031,-9030.512492,4293.194464,-76609.549800
471.718564,5625.565159,-444.123565,-74770.920605
471.721096,-6661.853478,11103.089130,-75077.358804
471.723629,11103.089130,592.164754,-72779.072310
471.726161,7698.141797,-6661.853478,-74464.482406
471.728694,9326.594869,-2368.659014,-74464.482406
471.731226,-4589.276840,1036.288319,-76149.892501
471.733759,-3997.112087,3849.070898,-75843.454302
471.736291,-1776.494261,-4737.318029,-76303.111601
471.738824,2368.659014,-8142.265362,-74311.263306
471.741356,5477.523971,-14359.995275,-76762.768900
471.743889,-19245.354492,888.247130,-79827.150892
471.746421,-25167.002028,5625.565159,-79214.274493
471.748954,-24130.713709,13767.830521,-76456.330700
471.751486,-5033.400406,9326.594869,-76149.892501
471.754019,7550.100608,4145.153275,-73698.386908
471.756551,-8438.347739,8290.306550,-74770.920605
471.759084,-6365.771101,1628.453072,-75383.797003
471.761616,-9622.677246,1332.370696,-75843.454302
471.764149,2220.617826,2812.782580,-74311.263306
471.766681,-8586.388927,4293.194464,-75230.577904
471.769214,9622.677246,592.164754,-74464.482406
471.771746,3849.070898,4885.359217,-74770.920605
471.774278,4589.276840,444.123565,-74158.044206
471.776811,740.205942,2220.617826,-74158.044206
471.779343,15100.201217,-148.041188,-75077.358804
471.781876,-7402.059420,2220.617826,-75230.577904
471.784421,7994.224174,-592.164754,-75230.577904
471.786967,-2072.576638,11547.212695,-74770.920605
471.789512,11991.336260,5033.400406,-74158.044206
471.792057,3404.947333,-1184.329507,-75230.577904
471.794603,296.082377,9474.636058,-76149.892501
471.797148,6513.812290,6513.812290,-75077.358804
471.799693,3849.070898,10658.965565,-74770.920605
471.802239,148.041188,888.247130,-74924.139704
471.804784,-888.247130,8142.265362,-75537.016103
471.807329,10510.924376,-3108.864956,-74924.139704
471.809875,888.247130,2368.659014,-75537.016103
471.812420,-2220.617826,10214.842000,-75230.577904
471.814965,5773.606348,15248.242405,-74770.920605
471.817511,4737.318029,11103.089130,-74464.482406
471.820056,-9326.594869,29756.278868,-75383.797003
471.822601,6069.688724,19541.436869,-78601.398095
471.825147,-13915.871710,25611.125593,-77835.302597
471.827692,-7846.182985,25315.043216,-74004.825107
471.830237,16136.489536,15840.407159,-71859.757712
471.832783,11103.089130,7846.182985,-72932.291410
471.835328,148.041188,15396.283594,-75383.797003
471.837874,20873.807564,1628.453072,-73391.948708
471.840419,12879.583391,2664.741391,-74617.701505
471.842964,8882.471304,6217.729913,-74311.263306
471.845510,-2960.823768,13027.624579,-75077.358804
471.848055,7254.018232,6217.729913,-73238.729609
471.850600,4589.276840,1776.494261,-75383.797003
471.853146,-6069.688724,-444.123565,-75383.797003
471.855691,2516.700203,740.205942,-77222.426198
471.858236,-9326.594869,14508.036463,-77222.426198
471.860782,7846.182985,-1332.370696,-74004.825107
471.863327,2516.700203,2664.741391,-73545.167808
471.865872,2220.617826,11399.171507,-73851.606007
471.868418,-2960.823768,-2516.700203,-76303.111601
471.870963,296.082377,-4441.235652,-75690.235202
471.873508,-592.164754,-2812.782580,-76303.111601
471.876054,-6513.812290,-3404.947333,-75383.797003
471.878599,888.247130,-1480.411884,-74464.482406
471.881144,-6957.935855,5773.606348,-74158.044206
471.883690,-592.164754,-1628.453072,-75537.016103
471.886186,-4885.359217,2220.617826,-76609.549800
471.888683,4293.194464,-1776.494261,-76303.111601
471.891179,-5477.523971,5181.441594,-75537.016103
471.893676,-4737.318029,-9770.718434,-75230.577904
471.896172,-5773.606348,-148.041188,-77528.864398
471.898669,-20133.601622,5033.400406,-79520.712692
471.901165,-15248.242405,9326.594869,-79061.055394
471.903662,-16580.613101,16432.571912,-76456.330700
471.906158,-6069.688724,13175.665768,-74924.139704
471.908655,8290.306550,7402.059420,-73851.606007
471.911151,-4737.318029,592.164754,-74770.920605
471.913648,-4885.359217,-296.082377,-76762.768900
471.916144,-7402.059420,-2960.823768,-76762.768900
471.918641,4441.235652,-11251.130318,-75690.235202
471.921137,-20133.601622,-444.123565,-76609.549800
471.923634,-3404.947333,3849.070898,-76456.330700
471.926130,-7105.977043,-444.123565,-75996.673402
471.928627,5477.523971,888.247130,-74464.482406
471.931123,-17172.777854,10510.924376,-77222.426198
471.933620,14211.954086,5773.606348,-74464.482406
471.936116,-2664.741391,4145.153275,-74464.482406
471.938613,17616.901420,1924.535449,-72472.634111
471.941109,6809.894666,3108.864956,-74311.263306
471.943606,5625.565159,6217.729913,-74311.263306
471.946102,10955.047942,-7254.018232,-75077.358804
471.948599,2516.700203,6661.853478,-75230.577904
471.951095,7254.018232,3997.112087,-74924.139704
471.953592,-444.123565,8734.430116,-74004.825107
471.956088,2072.576638,3404.947333,-75383.797003
471.958585,444.123565,8290.306550,-75537.016103
471.961081,11251.130318,-1924.535449,-74464.482406
471.963578,8438.347739,1036.288319,-74158.044206
471.966074,1184.329507,3108.864956,-74617.701505
471.968571,6513.812290,15248.242405,-74924.139704
471.971067,12435.459826,2368.659014,-71859.757712
471.973564,31088.649564,-18505.148550,-71246.881314
471.976060,23242.466579,-16284.530724,-73085.510509
471.978557,30200.402434,-2516.700203,-72012.976812
471.981053,9622.677246,7402.059420,-73238.729609
471.983550,2812.782580,-148.041188,-76303.111601
471.986068,4293.194464,4885.359217,-76149.892501
471.988586,5625.565159,9918.759623,-74464.482406
471.991104,10658.965565,6069.688724,-74924.139704
471.993622,4737.318029,11843.295072,-74770.920605
471.996140,5329.482782,8882.471304,-74617.701505
471.998658,9178.553681,6217.729913,-72779.072310
472.001176,9770.718434,-2812.782580,-75230.577904
472.003694,-8290.306550,3256.906145,-75843.454302
472.006212,1776.494261,148.041188,-77222.426198
472.008731,-9178.553681,11103.089130,-76762.768900
472.011249,6069.688724,-2664.741391,-74158.044206
472.013767,1776.494261,1776.494261,-74158.044206
472.016285,-1332.370696,15692.365970,-73698.386908
472.018803,-6217.729913,-1184.329507,-76456.330700
472.021321,-1036.288319,-5625.565159,-75230.577904
472.023839,-444.123565,1184.329507,-76303.111601
472.026357,-4589.276840,-2072.576638,-75230.577904
472.028875,3701.029710,-888.247130,-74464.482406
472.031393,-6957.935855,3997.112087,-75383.797003
472.033911,-1184.329507,-148.041188,-76303.111601
472.036429,1332.370696,2220.617826,-75537.016103
472.038947,3256.906145,-1332.370696,-75537.016103
472.041465,-7698.141797,12287.418637,-75077.358804
472.043984,-3108.864956,17764.942608,-74158.044206
472.046502,7550.100608,-740.205942,-72472.634111
472.049020,27535.661042,-21614.013506,-70940.443115
472.051538,27091.537477,-19245.354492,-74004.825107
472.054056,-14804.118840,-3256.906145,-79214.274493
472.056574,-22798.343014,-6069.688724,-78448.178995
472.059092,6217.729913,-10362.883188,-75843.454302
472.061610,-3701.029710,-3997.112087,-74924.139704
472.064128,-11843.295072,8290.306550,-75537.016103
472.066646,-13027.624579,12583.501014,-76303.111601
472.069164,740.205942,3256.906145,-74004.825107
472.071682,5181.441594,2220.617826,-75077.358804
472.074200,3701.029710,2072.576638,-74311.263306
472.076719,-1924.535449,2664.741391,-75230.577904
472.079237,-3108.864956,-740.205942,-75383.797003
472.081755,20577.725188,-2220.617826,-73545.167808
472.084273,-10510.924376,9622.677246,-74770.920605
472.086808,7846.182985,2516.700203,-75690.235202
472.089344,1924.535449,9474.636058,-75230.577904
472.091880,14211.954086,2960.823768,-73698.386908
472.094415,-2220.617826,10214.842000,-74924.139704
472.096951,8586.388927,6809.894666,-74158.044206
472.099487,12583.501014,4145.153275,-74311.263306
472.102022,7846.182985,10066.800811,-74158.044206
472.104558,888.247130,4441.235652,-75537.016103
472.107094,1480.411884,7698.141797,-75230.577904
472.109629,6069.688724,5181.441594,-75996.673402
472.112165,-7698.141797,12287.418637,-75077.358804
472.114700,15988.448347,9326.594869,-73238.729609
472.117236,2368.659014,15544.324782,-75230.577904
472.119772,-11103.089130,24574.837274,-75690.235202
472.122307,-9178.553681,21465.972318,-75383.797003
472.124843,30940.608376,-15988.448347,-70787.224015
472.127379,33605.349767,-2516.700203,-72779.072310
472.129914,-25167.002028,4737.318029,-79214.274493
472.132450,-18357.107362,7846.182985,-77835.302597
472.134986,14804.118840,1924.535449,-74158.044206
472.137521,21762.054695,-5625.565159,-73238.729609
472.140057,8290.306550,4293.194464,-73698.386908
472.142593,-6513.812290,12583.501014,-76149.892501
472.145128,12435.459826,3256.906145,-74311.263306
472.147664,3849.070898,13619.789333,-74004.825107
472.150199,13471.748144,6069.688724,-72932.291410
472.152735,-6809.894666,2220.617826,-75996.673402
472.155271,18209.066173,-2368.659014,-74004.825107
472.157806,-1480.411884,888.247130,-75537.016103
472.160342,-9030.512492,4737.318029,-75077.358804
472.162878,5181.441594,-7846.182985,-75996.673402
472.165413,740.205942,10362.883188,-74770.920605
472.167949,-10955.047942,-3849.070898,-76762.768900
472.170485,-8882.471304,4589.276840,-76149.892501
472.173020,3997.112087,-2960.823768,-75843.454302
472.175556,-6365.771101,14063.912898,-74158.044206
472.178091,12731.542202,-5773.606348,-72932.291410
472.180627,2220.617826,-4293.194464,-74617.701505
472.183163,2072.576638,296.082377,-75537.016103
472.185698,-8290.306550,1480.411884,-76456.330700
472.188194,3256.906145,-1036.288319,-76303.111601
472.190691,592.164754,2516.700203,-73851.606007
472.193187,9770.718434,-3552.988522,-74464.482406
472.195683,9622.677246,-9918.759623,-75383.797003
472.198179,2664.741391,16580.613101,-75843.454302
472.200675,-12139.377449,10362.883188,-74924.139704
472.203171,6809.894666,3404.947333,-74158.044206
472.205667,5625.565159,-4589.276840,-74924.139704
472.208163,-11103.089130,2368.659014,-75996.673402
472.210659,-7846.182985,3701.029710,-76149.892501
472.213155,444.123565,-740.205942,-75077.358804
472.215651,-12731.542202,3701.029710,-74924.139704
472.218147,4145.153275,2220.617826,-75077.358804
472.220643,1480.411884,4589.276840,-74924.139704
472.223139,3552.988522,740.205942,-75077.358804
472.225636,740.205942,888.247130,-74770.920605
472.228132,16284.530724,2220.617826,-72779.072310
472.230628,-6661.853478,9770.718434,-74770.920605
472.233124,11695.253884,5921.647536,-73851.606007
472.235620,6809.894666,1776.494261,-75383.797003
472.238116,6513.812290,9770.718434,-74617.701505
472.240612,-1628.453072,3256.906145,-75843.454302
472.243108,2812.782580,12139.377449,-74158.044206
472.245604,14211.954086,5477.523971,-74004.825107
472.248100,2072.576638,14359.995275,-74158.044206
472.250596,1036.288319,3701.029710,-75537.016103
472.253092,3552.988522,5773.606348,-74464.482406
472.255588,10510.924376,2072.576638,-75077.358804
472.258084,10807.006753,1480.411884,-72779.072310
472.260581,25463.084405,5477.523971,-72012.976812
472.263077,6957.935855,17172.777854,-73545.167808
472.265573,13323.706956,-3404.947333,-74464.482406
472.268069,11251.130318,-6513.812290,-73085.510509
472.270565,15248.242405,-2220.617826,-72472.634111
472.273061,16728.654289,-10510.924376,-73698.386908
472.275557,-4293.194464,-592.164754,-74770.920605
472.278053,17024.736666,-3552.988522,-74924.139704
472.280549,-1924.535449,1036.288319,-76303.111601
472.283045,6513.812290,3552.988522,-76303.111601
472.285541,5329.482782,296.082377,-75077.358804
472.288060,11695.253884,7402.059420,-74617.701505
472.290579,740.205942,13027.624579,-73851.606007
472.293098,13915.871710,6365.771101,-73698.386908
472.295617,-8290.306550,-1036.288319,-76149.892501
472.298136,9326.594869,1184.329507,-75383.797003
472.300655,-8882.471304,11991.336260,-76149.892501
472.303174,4885.359217,0.000000,-74464.482406
472.305693,-296.082377,-1480.411884,-74924.139704
472.308212,3256.906145,13619.789333,-74464.482406
472.310730,-3404.947333,-4293.194464,-75843.454302
472.313249,592.164754,-4145.153275,-74004.825107
472.315768,-3108.864956,-1184.329507,-76303.111601
472.318287,-2812.782580,1036.288319,-75383.797003
472.320806,-4737.318029,1184.329507,-75230.577904
472.323325,-8290.306550,-296.082377,-75537.016103
472.325844,6809.894666,-6661.853478,-75383.797003
472.328363,-1036.288319,2960.823768,-74924.139704
472.330882,2516.700203,-1036.288319,-75230.577904
472.333401,-12731.542202,8882.471304,-76762.768900
472.335920,-10658.965565,8438.347739,-75537.016103
472.338439,4293.194464,7254.018232,-75230.577904
472.340958,16580.613101,-10362.883188,-72625.853210
472.343477,13027.624579,-2220.617826,-75077.358804
472.345995,-11547.212695,-296.082377,-76762.768900
472.348514,-9030.512492,-1924.535449,-76456.330700
472.351033,3701.029710,-3701.029710,-75996.673402
472.353552,-1480.411884,-296.082377,-74311.263306
472.356071,9178.553681,-6957.935855,-73085.510509
472.358590,-16580.613101,-3108.864956,-76609.549800
472.361109,-8586.388927,3849.070898,-76456.330700
472.363628,0.000000,-9178.553681,-76456.330700
472.366147,5477.523971,1036.288319,-75383.797003
472.368666,-12287.418637,5329.482782,-77222.426198
472.371185,5625.565159,7402.059420,-75077.358804
472.373704,-5921.647536,8882.471304,-74158.044206
472.376223,11991.336260,10807.006753,-72625.853210
472.378741,11399.171507,5773.606348,-75077.358804
472.381260,7994.224174,5921.647536,-74924.139704
472.383779,4737.318029,0.000000,-74924.139704
472.386298,-2220.617826,3701.029710,-75077.358804
472.388785,5921.647536,7698.141797,-74617.701505
472.391272,2368.659014,3256.906145,-74617.701505
472.393759,11399.171507,2368.659014,-75230.577904
472.396246,-3552.988522,7550.100608,-76456.330700
472.398733,6809.894666,9178.553681,-74311.263306
472.401220,10066.800811,2812.782580,-73238.729609
472.403707,24130.713709,-5921.647536,-71246.881314
472.406194,13767.830521,-15544.324782,-73238.729609
472.408681,9178.553681,-6365.771101,-75843.454302
472.411168,-23686.590144,3256.906145,-77835.302597
472.413655,14804.118840,10214.842000,-76762.768900
472.416142,12879.583391,22650.301825,-71553.319513
472.418629,24426.796086,6661.853478,-70327.566716
472.421116,19245.354492,6809.894666,-71553.319513
472.423603,148.041188,8734.430116,-76149.892501
472.426090,12287.418637,-2368.659014,-75230.577904
472.428577,15988.448347,4885.359217,-72779.072310
472.431064,10658.965565,4885.359217,-73238.729609
472.433551,3108.864956,9326.594869,-74770.920605
472.436038,-7698.141797,3997.112087,-76303.111601
472.438525,5921.647536,4293.194464,-75996.673402
472.441012,1776.494261,10362.883188,-75077.358804
472.443499,12583.501014,444.123565,-74311.263306
472.445986,-10510.924376,3849.070898,-75996.673402
472.448473,5033.400406,10658.965565,-74158.044206
472.450960,-444.123565,-2812.782580,-76149.892501
472.453447,-1184.329507,-2072.576638,-74617.701505
472.455934,-4737.318029,296.082377,-77069.207099
472.458421,3404.947333,296.082377,-75230.577904
472.460908,-9030.512492,1776.494261,-76303.111601
472.463395,-4293.194464,8734.430116,-75077.358804
472.465882,1184.329507,-2220.617826,-75843.454302
472.468369,1628.453072,5033.400406,-75690.235202
472.470856,-3552.988522,592.164754,-76609.549800
472.473343,888.247130,-5625.565159,-74617.701505
472.475830,14508.036463,-11843.295072,-72779.072310
472.478317,17468.860231,-18653.189738,-73238.729609
472.480803,5625.565159,-12287.418637,-76149.892501
472.483290,-25611.125593,6661.853478,-79061.055394
472.485777,-11843.295072,-5329.482782,-77528.864398
472.488290,9326.594869,-9770.718434,-74770.920605
472.490802,-6957.935855,740.205942,-74924.139704
472.493315,-14063.912898,16876.695478,-75690.235202
472.495827,-14211.954086,5921.647536,-76149.892501
472.498340,14508.036463,-4885.359217,-72319.415011
472.500852,5181.441594,888.247130,-74004.825107
472.503365,-6365.771101,296.082377,-76456.330700
472.505877,-2072.576638,-7402.059420,-76762.768900
472.508390,10362.883188,-1184.329507,-74617.701505
472.510902,2368.659014,2220.617826,-73851.606007
472.513415,9770.718434,-1924.535449,-74770.920605
472.515927,-8734.430116,14211.954086,-76609.549800
472.518440,6513.812290,4885.359217,-76149.892501
472.520952,6365.771101,3849.070898,-74464.482406
472.523465,19837.519246,2368.659014,-71859.757712
472.525977,4737.318029,6365.771101,-74464.482406
472.528490,5477.523971,11991.336260,-74770.920605
472.531002,-1924.535449,2664.741391,-75843.454302
472.533515,14063.912898,3256.906145,-74004.825107
472.536027,-2072.576638,4293.194464,-75690.235202
472.538540,1184.329507,18061.024985,-73851.606007
472.541052,5477.523971,15100.201217,-74004.825107
472.543565,10510.924376,9178.553681,-73085.510509
472.546077,9770.718434,10362.883188,-72625.853210
472.548590,12435.459826,16580.613101,-72472.634111
472.551102,-4885.359217,11103.089130,-76456.330700
472.553614,-4589.276840,24278.754898,-74770.920605
472.556127,5329.482782,23982.672521,-72932.291410
472.558639,20725.766376,9030.512492,-72319.415011
472.561152,11991.336260,5181.441594,-74311.263306
472.563664,3256.906145,5033.400406,-75690.235202
472.566177,10807.006753,5477.523971,-74311.263306
472.568689,10510.924376,10658.965565,-73238.729609
472.571202,24426.796086,1480.411884,-72166.195912
472.573714,-9178.553681,3701.029710,-75996.673402
472.576227,-3404.947333,3701.029710,-77375.645298
472.578739,-2960.823768,10658.965565,-77222.426198
472.581252,20133.601622,-6365.771101,-72472.634111
472.583764,-8882.471304,3997.112087,-74617.701505
472.586277,-296.082377,11991.336260,-75230.577904
472.588810,1332.370696,-7698.141797,-76456.330700
472.591343,3997.112087,-7550.100608,-75077.358804
472.593876,-13619.789333,592.164754,-77222.426198
472.596409,-3997.112087,5921.647536,-76149.892501
472.598943,-6217.729913,5329.482782,-75843.454302
472.601476,-3552.988522,5477.523971,-73851.606007
472.604009,8142.265362,-5773.606348,-73851.606007
472.606542,-3256.906145,9178.553681,-73851.606007
472.609075,-3701.029710,-4293.194464,-76609.549800
472.611609,3997.112087,-8142.265362,-74464.482406
472.614142,1628.453072,-2368.659014,-76303.111601
472.616675,-6069.688724,9770.718434,-76149.892501
472.619208,-13767.830521,6957.935855,-75996.673402
472.621742,5329.482782,3256.906145,-72319.415011
472.624275,15100.201217,-5625.565159,-73391.948708
472.626808,-11251.130318,6069.688724,-75996.673402
472.629341,-8290.306550,7105.977043,-76456.330700
472.631875,-2812.782580,-296.082377,-75383.797003
472.634408,10510.924376,-8142.265362,-74004.825107
472.636941,-5921.647536,1628.453072,-74770.920605
472.639474,-10066.800811,2516.700203,-76762.768900
472.642007,2516.700203,-4441.235652,-76915.987999
472.644541,-1184.329507,5329.482782,-75690.235202
472.647074,5773.606348,6957.935855,-74770.920605
472.649607,-10955.047942,12879.583391,-76149.892501
472.652140,12435.459826,6809.894666,-73698.386908
472.654674,17764.942608,3256.906145,-74464.482406
472.657207,5477.523971,8142.265362,-74770.920605
472.659740,1036.288319,1924.535449,-76762.768900
472.662273,-3108.864956,10955.047942,-76609.549800
472.664806,8438.347739,6513.812290,-74004.825107
472.667340,-2072.576638,9622.677246,-74311.263306
472.669888,10955.047942,3997.112087,-74924.139704
472.672437,-3108.864956,7254.018232,-75690.235202
472.674986,9918.759623,3256.906145,-75230.577904
472.677534,4885.359217,10066.800811,-73391.948708
472.680083,20429.683999,-7550.100608,-72779.072310
472.682632,-8734.430116,9474.636058,-75383.797003
472.685181,-20429.683999,15100.201217,-78294.959896
472.687729,-20725.766376,20725.766376,-77835.302597
472.690278,9474.636058,16580.613101,-73698.386908
472.692827,20429.683999,1332.370696,-72779.072310
472.695375,6217.729913,7994.224174,-73238.729609
472.697924,2960.823768,11547.212695,-74464.482406
472.700473,7994.224174,4145.153275,-74464.482406
472.703021,20577.725188,2516.700203,-74311.263306
472.705570,7402.059420,5033.400406,-74158.044206
472.708119,14359.995275,4441.235652,-74617.701505
472.710668,-17616.901420,148.041188,-76762.768900
472.713216,1776.494261,4293.194464,-76456.330700
472.715765,-5625.565159,10362.883188,-76609.549800
472.718314,13323.706956,2368.659014,-75077.358804
472.720862,-3849.070898,-444.123565,-75077.358804
472.723411,9178.553681,2516.700203,-72932.291410
472.725960,-3108.864956,-2960.823768,-75537.016103
472.728508,-148.041188,-1332.370696,-75077.358804
472.731057,-2368.659014,-1924.535449,-76762.768900
472.733606,2664.741391,1480.411884,-75537.016103
472.736154,-7994.224174,3256.906145,-75996.673402
472.738703,444.123565,5329.482782,-73545.167808
472.741252,1332.370696,-4589.276840,-74617.701505
472.743801,1924.535449,6661.853478,-73085.510509
472.746349,-3997.112087,-2960.823768,-76762.768900
472.748898,-4145.153275,-6661.853478,-76609.549800
472.751447,-9918.759623,6809.894666,-77375.645298
472.753995,-8290.306550,6217.729913,-75843.454302
472.756544,1036.288319,-16432.571912,-73391.948708
472.759093,18061.024985,-7994.224174,-73085.510509
472.761641,-1776.494261,-5477.523971,-75843.454302
472.764190,-9770.718434,7105.977043,-76609.549800
472.766739,-5477.523971,740.205942,-76762.768900
472.769287,-13175.665768,2960.823768,-75537.016103
472.771849,-2960.823768,2812.782580,-75383.797003
472.774410,-3552.988522,-2368.659014,-75230.577904
472.776972,-1184.329507,444.123565,-75383.797003
472.779533,2220.617826,-5329.482782,-75230.577904
472.782095,10362.883188,4441.235652,-75537.016103
472.784656,-4737.318029,4885.359217,-74617.701505
472.787218,9622.677246,-3256.906145,-74924.139704
472.789779,1924.535449,6809.894666,-74924.139704
472.792341,6809.894666,9770.718434,-74924.139704
472.794902,-3997.112087,6217.729913,-76149.892501
472.797464,17320.819043,5329.482782,-73238.729609
472.800025,11103.089130,3849.070898,-73851.606007
472.802587,3256.906145,17172.777854,-73851.606007
472.805148,-4737.318029,6957.935855,-75843.454302
472.807710,15248.242405,2812.782580,-73391.948708
472.810271,6513.812290,-148.041188,-75383.797003
472.812833,3997.112087,5921.647536,-75230.577904
472.815394,2812.782580,-592.164754,-74158.044206
472.817956,18505.148550,0.000000,-73851.606007
472.820517,12731.542202,-7698.141797,-72319.415011
472.823079,16580.613101,-7698.141797,-72932.291410
472.825640,3404.947333,-3997.112087,-78141.740796
472.828202,-12287.418637,5773.606348,-77682.083497
472.830763,6365.771101,3552.988522,-75383.797003
472.833325,4885.359217,7846.182985,-74464.482406
472.835886,9918.759623,7105.977043,-74311.263306
472.838448,2516.700203,12435.459826,-75383.797003
472.841009,11399.171507,7994.224174,-75077.358804
472.843571,17172.777854,2960.823768,-73851.606007
472.846132,-3404.947333,3997.112087,-75230.577904
472.848694,-4737.318029,5477.523971,-76149.892501
472.851255,-6217.729913,11991.336260,-77988.521696
472.853817,2664.741391,-4589.276840,-74464.482406
472.856378,3552.988522,-3404.947333,-75690.235202
472.858940,-3849.070898,14804.118840,-74158.044206
472.861501,-5329.482782,-3256.906145,-76456.330700
472.864063,296.082377,-740.205942,-74770.920605
472.866624,4737.318029,-5625.565159,-75230.577904
472.869186,-3701.029710,7402.059420,-75230.577904
472.871747,-10510.924376,4441.235652,-75843.454302
472.874274,6661.853478,4293.194464,-72932.291410
472.876800,10362.883188,-4737.318029,-73698.386908
472.879327,592.164754,7698.141797,-74158.044206
472.881853,-7254.018232,-1036.288319,-75383.797003
472.884380,-1924.535449,-1332.370696,-76762.768900
472.886906,-12583.501014,-10214.842000,-79061.055394
472.889432,-6069.688724,-11251.130318,-77682.083497
472.891959,-9622.677246,-1332.370696,-77988.521696
472.894485,-12731.542202,-2368.659014,-75843.454302
472.897012,3108.864956,1036.288319,-73545.167808
472.899538,-888.247130,3849.070898,-74311.263306
472.902064,-6217.729913,3997.112087,-75230.577904
472.904591,4441.235652,-11695.253884,-75077.358804
472.907117,0.000000,-296.082377,-75230.577904
472.909644,-4589.276840,-4293.194464,-75537.016103
472.912170,-4441.235652,-2664.741391,-76303.111601
472.914696,888.247130,1332.370696,-76303.111601
472.917223,4589.276840,3108.864956,-75230.577904
472.919749,-3701.029710,7846.182985,-76456.330700
472.922276,1332.370696,13915.871710,-74311.263306
472.924802,16876.695478,4589.276840,-74311.263306
472.927329,3404.947333,7105.977043,-73391.948708
472.929855,4293.194464,-3997.112087,-76609.549800
472.932381,-7550.100608,9030.512492,-76303.111601
472.934908,9918.759623,6217.729913,-76303.111601
472.937434,-740.205942,11251.130318,-74464.482406
472.939961,7550.100608,3997.112087,-74770.920605
472.942487,-4145.153275,8586.388927,-75690.235202
472.945013,2812.782580,13027.624579,-74158.044206
472.947540,-740.205942,-4441.235652,-76303.111601
472.950066,1184.329507,9474.636058,-75690.235202
472.952593,-12435.459826,13767.830521,-77222.426198
472.955119,-1480.411884,444.123565,-74004.825107
472.957645,13175.665768,3256.906145,-74617.701505
472.960172,-3108.864956,-148.041188,-75383.797003
472.962698,1628.453072,4145.153275,-76609.549800
472.965225,1628.453072,7698.141797,-75383.797003
472.967751,17024.736666,2960.823768,-75077.358804
472.970278,5181.441594,11547.212695,-74464.482406
472.972804,6365.771101,7846.182985,-74464.482406
472.975348,11695.253884,592.164754,-75383.797003
472.977892,2960.823768,888.247130,-75383.797003
472.980435,5773.606348,2220.617826,-75077.358804
472.982979,-9178.553681,12731.542202,-76915.987999
472.985523,2368.659014,-3997.112087,-75077.358804
472.988067,444.123565,-3108.864956,-75077.358804
472.990611,1036.288319,10807.006753,-73391.948708
472.993154,-3404.947333,-2516.700203,-76609.549800
472.995698,-592.164754,-2960.823768,-74464.482406
472.998242,-1480.411884,-592.164754,-76149.892501
473.000786,-2664.741391,6217.729913,-74617.701505
473.003330,-4293.194464,3404.947333,-75077.358804
473.005874,11991.336260,-1480.411884,-72166.195912
473.008417,4145.153275,-2812.782580,-75996.673402
473.010961,148.041188,9622.677246,-74924.139704
473.013505,-1776.494261,-9326.594869,-75383.797003
473.016049,-7698.141797,10807.006753,-76303.111601
473.018593,-3997.112087,4293.194464,-75843.454302
473.021136,-2072.576638,11399.171507,-74311.263306
473.023680,13175.665768,-11399.171507,-72932.291410
473.026224,9030.512492,-1332.370696,-74617.701505
473.028768,-10807.006753,1924.535449,-76149.892501
473.031312,-2812.782580,-1776.494261,-76762.768900
473.033856,-19097.313304,3256.906145,-77222.426198
473.036399,-1628.453072,3256.906145,-75690.235202
473.038943,-5477.523971,-7105.977043,-75230.577904
473.041487,-4589.276840,296.082377,-75690.235202
473.044031,-2664.741391,296.082377,-75383.797003
473.046575,16136.489536,3997.112087,-74004.825107
473.049118,-5773.606348,10362.883188,-75230.577904
473.051662,11251.130318,444.123565,-74311.263306
473.054206,5329.482782,6957.935855,-74464.482406
473.056750,13767.830521,4145.153275,-74617.701505
473.059294,-7105.977043,4589.276840,-75690.235202
473.061838,17172.777854,3552.988522,-73698.386908
473.064381,6513.812290,1036.288319,-74770.920605
473.066925,9326.594869,11843.295072,-74770.920605
473.069469,-8882.471304,2960.823768,-75537.016103
473.072013,7402.059420,5921.647536,-73698.386908
473.074557,10807.006753,-1776.494261,-74464.482406
473.077113,7105.977043,4293.194464,-73238.729609
473.079670,7550.100608,10214.842000,-72932.291410
473.082227,23834.631332,-8882.471304,-72166.195912
473.084784,17912.983796,-24426.796086,-74158.044206
473.087341,-19541.436869,8586.388927,-78754.617194
473.089897,-29608.237680,15248.242405,-79980.369991
473.092454,10362.883188,3849.070898,-74924.139704
473.095011,7994.224174,3256.906145,-74158.044206
473.097568,3701.029710,15248.242405,-74464.482406
473.100125,2812.782580,13027.624579,-75077.358804
473.102681,5477.523971,14804.118840,-74464.482406
473.105238,26647.413912,-2072.576638,-73545.167808
473.107795,888.247130,4737.318029,-74770.920605
473.110352,-3701.029710,4885.359217,-76456.330700
473.112909,-7105.977043,11251.130318,-77069.207099
473.115465,17024.736666,-7105.977043,-73085.510509
473.118022,-7254.018232,-1184.329507,-74924.139704
473.120579,-740.205942,10955.047942,-74924.139704
473.123136,-4737.318029,-3552.988522,-77069.207099
473.125693,1628.453072,-5625.565159,-74464.482406
473.128249,-7105.977043,-1036.288319,-75843.454302
473.130806,-592.164754,6365.771101,-74770.920605
473.133363,-2368.659014,-2664.741391,-74924.139704
473.135920,10510.924376,-740.205942,-72472.634111
473.138477,6513.812290,-3997.112087,-74311.263306
473.141033,-1184.329507,8438.347739,-75843.454302
473.143590,-8882.471304,-7105.977043,-76915.987999
473.146147,-9770.718434,11695.253884,-76609.549800
473.148704,-1184.329507,7994.224174,-75690.235202
473.151261,-3552.988522,7698.141797,-75690.235202
473.153817,-3404.947333,9622.677246,-74311.263306
473.156374,7402.059420,3108.864956,-73545.167808
473.158931,-1924.535449,5773.606348,-75077.358804
473.161488,3849.070898,-6069.688724,-73085.510509
473.164045,-3701.029710,-9622.677246,-73391.948708
473.166601,-740.205942,444.123565,-75383.797003
473.169158,-13619.789333,-296.082377,-77835.302597
473.171715,-2516.700203,888.247130,-76456.330700
473.174272,-4589.276840,-592.164754,-75537.016103
473.176829,17616.901420,5625.565159,-73851.606007
473.179396,-11695.253884,11695.253884,-75690.235202
473.181963,14656.077652,7994.224174,-73851.606007
473.184530,13027.624579,2516.700203,-74464.482406
473.187097,12139.377449,6365.771101,-75077.358804
473.189664,-4441.235652,6809.894666,-76303.111601
473.192231,2960.823768,8290.306550,-74924.139704
473.194799,15840.407159,4589.276840,-73085.510509
473.197366,4441.235652,16136.489536,-73698.386908
473.199933,5033.400406,4885.359217,-75077.358804
473.202500,-4441.235652,9622.677246,-75690.235202
473.205067,13619.789333,2664.741391,-74464.482406
473.207634,3997.112087,8734.430116,-74770.920605
473.210202,-11547.212695,19837.519246,-75077.358804
473.212769,-6809.894666,33753.390955,-75537.016103
473.215336,2220.617826,25611.125593,-73698.386908
473.217903,23094.425390,16580.613101,-70634.004916
473.220470,18357.107362,13175.665768,-72779.072310
473.223037,-592.164754,12287.418637,-74311.263306
473.225604,10066.800811,3997.112087,-73545.167808
473.228172,21169.889941,6217.729913,-73698.386908
473.230739,21021.848753,-888.247130,-73238.729609
473.233306,14211.954086,2368.659014,-74770.920605
473.235873,-17912.983796,9326.594869,-77835.302597
473.238440,-592.164754,6661.853478,-76149.892501
473.241007,9030.512492,7402.059420,-74004.825107
473.243575,20577.725188,-2368.659014,-72779.072310
473.246142,-24426.796086,1332.370696,-76303.111601
473.248709,9622.677246,-8882.471304,-76303.111601
473.251276,-296.082377,-3701.029710,-75077.358804
473.253843,-5329.482782,3997.112087,-74924.139704
473.256410,-15100.201217,5921.647536,-77222.426198
473.258977,9030.512492,888.247130,-74311.263306
473.261545,2368.659014,-6957.935855,-74924.139704
473.264112,10066.800811,-1924.535449,-73851.606007
473.266679,-15692.365970,1184.329507,-77069.207099
473.269246,-3849.070898,2072.576638,-75996.673402
473.271813,148.041188,-4885.359217,-76456.330700
473.274380,-7698.141797,14656.077652,-75383.797003
473.276948,-592.164754,13767.830521,-75537.016103
473.279515,-3849.070898,13767.830521,-75537.016103
473.282090,-2812.782580,12287.418637,-74464.482406
473.284666,9326.594869,296.082377,-73545.167808
473.287242,-2664.741391,7105.977043,-75996.673402
473.289818,-7105.977043,1776.494261,-74770.920605
473.292393,4885.359217,3849.070898,-75843.454302
473.294969,-2812.782580,2220.617826,-74617.701505
473.297545,-3108.864956,-148.041188,-75537.016103
473.300120,-12287.418637,-4441.235652,-77222.426198
473.302696,-11991.336260,3256.906145,-77069.207099
473.305272,16728.654289,1332.370696,-74004.825107
473.307847,2220.617826,11695.253884,-74464.482406
473.310423,8586.388927,12731.542202,-73545.167808
473.312999,11695.253884,3997.112087,-75537.016103
473.315575,10510.924376,6069.688724,-73851.606007
473.318150,2516.700203,2664.741391,-75383.797003
473.320726,-4145.153275,10362.883188,-74770.920605
473.323302,9178.553681,7698.141797,-75383.797003
473.325877,-592.164754,10214.842000,-74924.139704
473.328453,8882.471304,5477.523971,-74464.482406
473.331029,-148.041188,5477.523971,-75690.235202
473.333605,11399.171507,888.247130,-74770.920605
473.336180,296.082377,-11843.295072,-75690.235202
473.338756,-12879.583391,14804.118840,-77222.426198
473.341332,-16432.571912,4885.359217,-77069.207099
473.343907,11547.212695,888.247130,-74464.482406
473.346483,-444.123565,-1628.453072,-75996.673402
473.349059,-11843.295072,13471.748144,-76149.892501
473.351635,13619.789333,-740.205942,-73391.948708
473.354210,11251.130318,1480.411884,-74311.263306
473.356786,14804.118840,2368.659014,-73238.729609
473.359362,-888.247130,13915.871710,-75690.235202
473.361937,6661.853478,3404.947333,-74464.482406
473.364513,9770.718434,-2368.659014,-74158.044206
473.367089,10510.924376,3997.112087,-73545.167808
473.369665,-12139.377449,7994.224174,-77835.302597
473.372240,-16876.695478,2812.782580,-76762.768900
473.374816,3404.947333,-11399.171507,-75843.454302
473.377392,-296.082377,15396.283594,-73085.510509
473.379967,-296.082377,-3108.864956,-75077.358804
473.382543,0.000000,-2220.617826,-75077.358804
473.385124,3552.988522,-6069.688724,-75537.016103
473.387706,-3108.864956,2368.659014,-75383.797003
473.390287,-7994.224174,6661.853478,-75996.673402
473.392869,3256.906145,-1036.288319,-74004.825107
473.395450,11695.253884,-5181.441594,-74464.482406
473.398032,3404.947333,13027.624579,-73238.729609
473.400613,-888.247130,1184.329507,-75537.016103
473.403194,12139.377449,-5477.523971,-73545.167808
473.405776,5773.606348,8438.347739,-75383.797003
473.408357,-1184.329507,-1480.411884,-74004.825107
473.410939,5921.647536,3256.906145,-74004.825107
473.413520,1332.370696,6661.853478,-74311.263306
473.416101,-7105.977043,3849.070898,-75537.016103
473.418683,2960.823768,-444.123565,-74311.263306
473.421264,-148.041188,1036.288319,-73698.386908
473.423846,-4441.235652,888.247130,-75843.454302
473.426427,-13027.624579,-888.247130,-77222.426198
473.429008,-12731.542202,5921.647536,-76456.330700
473.431590,25611.125593,-3849.070898,-73238.729609
473.434171,-1036.288319,9770.718434,-74004.825107
473.436753,8290.306550,13323.706956,-73698.386908
473.439334,7402.059420,7402.059420,-74770.920605
473.441916,18653.189738,6661.853478,-73238.729609
473.444497,888.247130,2664.741391,-75537.016103
473.447078,-3997.112087,13471.748144,-75996.673402
473.449660,12879.583391,3552.988522,-74770.920605
473.452241,3997.112087,12139.377449,-74464.482406
473.454823,9326.594869,4441.235652,-73698.386908
473.457404,-1036.288319,10362.883188,-75690.235202
473.459985,10807.006753,-5033.400406,-74924.139704
473.462567,7846.182985,-15100.201217,-74617.701505
473.465148,-3404.947333,9326.594869,-76149.892501
473.467730,-22502.260637,13471.748144,-77375.645298
473.470311,19393.395680,-9030.512492,-73851.606007
473.472893,25907.207970,-9326.594869,-72472.634111
473.475474,-9474.636058,9030.512492,-76456.330700
473.478055,3849.070898,8142.265362,-74770.920605
473.480637,13323.706956,6365.771101,-73698.386908
473.483218,15840.407159,4589.276840,-73698.386908
473.485800,18061.024985,592.164754,-74924.139704
473.488385,-14211.954086,6809.894666,-77528.864398
473.490971,444.123565,2220.617826,-76456.330700
473.493557,10362.883188,5181.441594,-73698.386908
473.496143,18357.107362,-444.123565,-73085.510509
473.498728,-26351.331535,3849.070898,-77069.207099
473.501314,6809.894666,-12139.377449,-76609.549800
473.503900,-3404.947333,-1924.535449,-75077.358804
473.506486,-5033.400406,4145.153275,-75230.577904
473.509071,-11547.212695,3256.906145,-76303.111601
473.511657,8290.306550,1036.288319,-75077.358804
473.514243,-5477.523971,2812.782580,-75843.454302
473.516829,-7698.141797,8882.471304,-75690.235202
473.519415,-12879.583391,5921.647536,-75843.454302
473.522000,3552.988522,1776.494261,-75996.673402
473.524586,2664.741391,-9326.594869,-75690.235202
473.527172,-11251.130318,14952.160028,-77988.521696
473.529758,-11843.295072,1480.411884,-76456.330700
473.532343,8586.388927,-3404.947333,-74464.482406
473.534929,7105.977043,-15100.201217,-74770.920605
473.537515,-11695.253884,1628.453072,-76149.892501
473.540101,-3701.029710,-888.247130,-75996.673402
473.542687,4885.359217,-11991.336260,-73545.167808
473.545272,-1628.453072,-740.205942,-75690.235202
473.547858,-9770.718434,2812.782580,-75537.016103
473.550444,-6513.812290,7550.100608,-76303.111601
473.553030,-2368.659014,-5329.482782,-74311.263306
473.555615,25315.043216,-740.205942,-72625.853210
473.558201,-6957.935855,7994.224174,-74464.482406
473.560787,15544.324782,6957.935855,-73391.948708
473.563373,5329.482782,9770.718434,-74924.139704
473.565958,11843.295072,8438.347739,-73698.386908
473.568544,-2368.659014,6217.729913,-74770.920605
473.571130,18653.189738,-2368.659014,-73545.167808
473.573716,7994.224174,1628.453072,-75230.577904
473.576302,2812.782580,13915.871710,-74617.701505
473.578887,592.164754,9622.677246,-75383.797003
473.581473,10066.800811,1480.411884,-73698.386908
473.584059,10510.924376,-3997.112087,-75537.016103
473.586645,3256.906145,-8586.388927,-76609.549800
473.589230,-14656.077652,15396.283594,-77528.864398
473.591779,-15248.242405,11695.253884,-76303.111601
473.594327,30348.443622,-8142.265362,-72472.634111
473.596876,9770.718434,-4145.153275,-74311.263306
473.599424,-13471.748144,7402.059420,-76762.768900
473.601973,6809.894666,4885.359217,-75843.454302
473.604521,16876.695478,-1480.411884,-73698.386908
473.607070,11991.336260,6957.935855,-73698.386908
473.609618,-2220.617826,15544.324782,-77069.207099
473.612167,-14359.995275,4145.153275,-77682.083497
473.614715,1184.329507,2664.741391,-76609.549800
473.617264,8290.306550,7254.018232,-73238.729609
473.619812,18949.272115,1332.370696,-73238.729609
473.622361,-23242.466579,1628.453072,-75996.673402
473.624909,4589.276840,-6661.853478,-76303.111601
473.627458,-2516.700203,-5329.482782,-75230.577904
473.630006,-2960.823768,3997.112087,-74770.920605
473.632555,-11547.212695,3404.947333,-75996.673402
473.635103,6809.894666,2516.700203,-74464.482406
473.637652,-740.205942,2812.782580,-74617.701505
473.640200,-9474.636058,11843.295072,-75077.358804
473.642749,-14804.118840,13767.830521,-76915.987999
473.645297,2664.741391,-740.205942,-74311.263306
473.647846,12435.459826,-888.247130,-74311.263306
473.650394,12139.377449,-8882.471304,-75077.358804
473.652943,-7846.182985,9918.759623,-76149.892501
473.655491,-1628.453072,-10214.842000,-74924.139704
473.658040,20281.642811,-11695.253884,-73698.386908
473.660588,2516.700203,-13027.624579,-75230.577904
473.663137,-23834.631332,6217.729913,-77222.426198
473.665685,-19541.436869,12731.542202,-77682.083497
473.668234,11103.089130,-4293.194464,-74464.482406
473.670782,-5625.565159,1036.288319,-75383.797003
473.673330,2220.617826,-9622.677246,-74004.825107
473.675879,-26203.290347,9474.636058,-78294.959896
473.678427,5477.523971,-1776.494261,-75690.235202
473.680976,13619.789333,888.247130,-73851.606007
473.683524,14508.036463,14952.160028,-72779.072310
473.686073,2960.823768,13175.665768,-75690.235202
473.688621,8290.306550,4885.359217,-74158.044206
473.691170,12879.583391,-4885.359217,-74770.920605
473.693729,-6809.894666,10955.047942,-75077.358804
473.696288,5181.441594,7550.100608,-76149.892501
473.698847,2220.617826,12879.583391,-74770.920605
473.701406,3997.112087,7698.141797,-74770.920605
473.703965,5181.441594,8734.430116,-74158.044206
473.706524,6069.688724,13915.871710,-75383.797003
473.709084,-10066.800811,20281.642811,-74464.482406
473.711643,6217.729913,11695.253884,-74158.044206
473.714202,7254.018232,17024.736666,-74311.263306
473.716761,-6957.935855,30496.484810,-75537.016103
473.719320,10807.006753,10066.800811,-73851.606007
473.721879,10362.883188,4737.318029,-74004.825107
473.724438,7994.224174,6217.729913,-74464.482406
473.726997,9326.594869,7402.059420,-74311.263306
473.729556,5773.606348,13027.624579,-75843.454302
473.732115,11547.212695,10807.006753,-74004.825107
473.734674,5477.523971,296.082377,-75843.454302
473.737233,3701.029710,6069.688724,-73851.606007
473.739793,6365.771101,0.000000,-75537.016103
473.742352,-20725.766376,1776.494261,-76609.549800
473.744911,8734.430116,-10510.924376,-75690.235202
473.747470,-7698.141797,3256.906145,-75843.454302
473.750029,-4737.318029,1480.411884,-75843.454302
473.752588,-8438.347739,3997.112087,-75230.577904
473.755147,3997.112087,592.164754,-74924.139704
473.757706,-3108.864956,5033.400406,-74464.482406
473.760265,-2812.782580,1332.370696,-74617.701505
473.762824,15692.365970,-9474.636058,-73545.167808
473.765383,-444.123565,-12139.377449,-75843.454302
473.767942,10214.842000,-2664.741391,-73545.167808
473.770502,8882.471304,-10066.800811,-74617.701505
473.773061,-1184.329507,-4293.194464,-75383.797003
473.775620,9474.636058,-15840.407159,-74924.139704
473.778179,8882.471304,-9770.718434,-74004.825107
473.780738,-148.041188,-13915.871710,-75077.358804
473.783297,-8882.471304,-6365.771101,-76609.549800
473.785856,-15988.448347,1924.535449,-77528.864398
473.788415,-888.247130,-5921.647536,-76149.892501
473.790974,-3108.864956,-2516.700203,-75230.577904
473.793533,-7550.100608,-10658.965565,-77528.864398
473.796101,-15692.365970,7254.018232,-75996.673402
473.798669,-444.123565,2812.782580,-75230.577904
473.801237,9030.512492,-444.123565,-75383.797003
473.803805,1924.535449,19541.436869,-74770.920605
473.806373,7698.141797,13027.624579,-75077.358804
473.808941,11991.336260,3404.947333,-73085.510509
473.811509,11695.253884,-6661.853478,-74464.482406
473.814076,-14063.912898,9326.594869,-76303.111601
473.816644,0.000000,11399.171507,-76456.330700
473.819212,7550.100608,5773.606348,-74158.044206
473.821780,6957.935855,9030.512492,-73391.948708
473.824348,-740.205942,12139.377449,-74924.139704
473.826916,4441.235652,-4145.153275,-74770.920605
473.829484,-7994.224174,13767.830521,-75537.016103
473.832052,-6365.771101,-12879.583391,-76762.768900
473.834620,-17172.777854,11695.253884,-78601.398095
473.837187,-12583.501014,10807.006753,-77682.083497
473.839755,4441.235652,9030.512492,-74311.263306
473.842323,11399.171507,2220.617826,-73238.729609
473.844891,10510.924376,8290.306550,-74311.263306
473.847459,3404.947333,10807.006753,-75077.358804
473.850027,23982.672521,-1332.370696,-74617.701505
473.852595,-1480.411884,-296.082377,-76456.330700
473.855163,-296.082377,4885.359217,-77222.426198
473.857730,-6217.729913,13767.830521,-75537.016103
473.860298,19837.519246,-4441.235652,-73238.729609
473.862866,-3404.947333,-4293.194464,-75383.797003
473.865434,5329.482782,7105.977043,-74924.139704
473.868002,-6809.894666,-3256.906145,-76762.768900
473.870570,-740.205942,-1036.288319,-75230.577904
473.873138,-3552.988522,-4885.359217,-75077.358804
473.875706,2368.659014,4293.194464,-74464.482406
473.878274,-3256.906145,-6513.812290,-75383.797003
473.880841,-9622.677246,10955.047942,-76609.549800
473.883409,0.000000,7846.182985,-74617.701505
473.885977,2368.659014,-3404.947333,-74924.139704
473.888545,-10807.006753,15100.201217,-74924.139704
473.891113,-2516.700203,11399.171507,-75537.016103
473.893681,-4885.359217,12731.542202,-76762.768900
473.896249,-13027.624579,9770.718434,-75843.454302
473.898823,14063.912898,-9770.718434,-73391.948708
473.901397,-2960.823768,-7105.977043,-74770.920605
473.903971,-19541.436869,7402.059420,-76915.987999
473.906545,-14804.118840,3701.029710,-76915.987999
473.909119,5033.400406,-6217.729913,-74464.482406
473.911693,-6809.894666,-5477.523971,-75996.673402
473.914267,-20281.642811,6957.935855,-76915.987999
473.916841,5477.523971,592.164754,-75690.235202
473.919415,5921.647536,7698.141797,-74004.825107
473.921989,18357.107362,9622.677246,-73085.510509
473.924563,8290.306550,12583.501014,-74924.139704
473.927137,3404.947333,12583.501014,-75230.577904
473.929711,7550.100608,0.000000,-75843.454302
473.932285,-3849.070898,7846.182985,-74464.482406
473.934859,10955.047942,5329.482782,-74924.139704
473.937433,888.247130,14063.912898,-75383.797003
473.940007,2960.823768,9326.594869,-76303.111601
473.942581,3849.070898,5625.565159,-74924.139704
473.945155,8290.306550,-10214.842000,-74004.825107
473.947729,-444.123565,7402.059420,-76149.892501
473.950303,-18209.066173,25611.125593,-77375.645298
473.952877,-16876.695478,14804.118840,-76303.111601
473.955451,26055.249158,10362.883188,-71859.757712
473.958025,15396.283594,5033.400406,-73391.948708
473.960599,6957.935855,8142.265362,-73238.729609
473.963173,8882.471304,9770.718434,-73698.386908
473.965747,4441.235652,13767.830521,-74311.263306
473.968321,31532.773129,-3108.864956,-72472.634111
473.970895,-148.041188,-1036.288319,-75230.577904
473.973469,-3849.070898,13471.748144,-77375.645298
473.976043,-8586.388927,14656.077652,-76762.768900
473.978617,17024.736666,-4737.318029,-72779.072310
473.981191,-11103.089130,1480.411884,-74464.482406
473.983765,-740.205942,4441.235652,-74770.920605
473.986339,-4145.153275,-7254.018232,-77069.207099
473.988913,3849.070898,-3849.070898,-74617.701505
473.991487,5477.523971,-7105.977043,-75383.797003
473.994061,-6957.935855,4293.194464,-74924.139704
473.996635,-5773.606348,-3701.029710,-76303.111601
473.999209,-7550.100608,5625.565159,-75077.358804
474.001749,2960.823768,1924.535449,-75077.358804
474.004290,4441.235652,4737.318029,-75077.358804
474.006830,24130.713709,-38490.708984,-73545.167808
474.009371,2072.576638,-17764.942608,-79061.055394
474.011911,-60104.722490,11547.212695,-82431.875585
474.014452,-34493.596897,20725.766376,-78907.836294
474.016992,18209.066173,-3997.112087,-73391.948708
474.019533,17764.942608,-5033.400406,-72166.195912
474.022073,-1036.288319,9474.636058,-73851.606007
474.024614,-27831.743419,22502.260637,-76456.330700
474.027154,-4589.276840,-740.205942,-74770.920605
474.029695,21762.054695,-16728.654289,-72012.976812
474.032235,8438.347739,-2516.700203,-73545.167808
474.034776,-10362.883188,8438.347739,-76609.549800
474.037316,5181.441594,-2664.741391,-76303.111601
474.039857,12287.418637,17320.819043,-72932.291410
474.042397,12287.418637,15544.324782,-74004.825107
474.044938,1776.494261,9326.594869,-74924.139704
474.047479,11103.089130,-10362.883188,-75843.454302
474.050019,-8142.265362,5477.523971,-76303.111601
474.052560,296.082377,9474.636058,-75230.577904
474.055100,-444.123565,5477.523971,-75690.235202
474.057641,14211.954086,1628.453072,-74004.825107
474.060181,2812.782580,5477.523971,-76456.330700
474.062722,-5773.606348,9474.636058,-75996.673402
474.065262,-12139.377449,16580.613101,-75996.673402
474.067803,14508.036463,-2664.741391,-72319.415011
474.070343,17468.860231,6661.853478,-75537.016103
474.072884,-13471.748144,12879.583391,-77069.207099
474.075424,5773.606348,3849.070898,-75230.577904
474.077965,15692.365970,2812.782580,-73238.729609
474.080505,17024.736666,1036.288319,-72625.853210
474.083046,17320.819043,6809.894666,-73238.729609
474.085586,-4293.194464,7402.059420,-75230.577904
474.088127,7846.182985,4589.276840,-76303.111601
474.090667,5773.606348,9474.636058,-74924.139704
474.093208,11399.171507,740.205942,-73238.729609
474.095749,-11695.253884,-4737.318029,-74004.825107
474.098289,6365.771101,-7846.182985,-75077.358804
474.100830,-8438.347739,-2664.741391,-76762.768900
474.103382,-8882.471304,2368.659014,-76303.111601
474.105934,-4145.153275,1480.411884,-76303.111601
474.108486,7698.141797,296.082377,-74004.825107
474.111038,-3701.029710,4293.194464,-74770.920605
474.113590,-2960.823768,-8586.388927,-75230.577904
474.116143,11547.212695,-5181.441594,-74617.701505
474.118695,-148.041188,12879.583391,-74770.920605
474.121247,14508.036463,-10807.006753,-73851.606007
474.123799,14211.954086,-444.123565,-73698.386908
474.126351,1184.329507,592.164754,-74464.482406
474.128904,8438.347739,8290.306550,-73698.386908
474.131456,-7698.141797,8438.347739,-74924.139704
474.134008,7254.018232,4885.359217,-74158.044206
474.136560,-4441.235652,6661.853478,-75077.358804
474.139112,-6069.688724,3701.029710,-76609.549800
474.141665,-5181.441594,-6957.935855,-74924.139704
474.144217,9622.677246,-12139.377449,-74004.825107
474.146769,11843.295072,-2072.576638,-73545.167808
474.149321,-2368.659014,4885.359217,-74617.701505
474.151873,8142.265362,-2960.823768,-75537.016103
474.154425,4293.194464,17616.901420,-74617.701505
474.156978,11399.171507,12139.377449,-73851.606007
474.159530,7402.059420,7402.059420,-73851.606007
474.162082,13471.748144,-4589.276840,-74770.920605
474.164634,-5033.400406,7994.224174,-75230.577904
474.167186,-2516.700203,10807.006753,-76456.330700
474.169739,8586.388927,3552.988522,-74158.044206
474.172291,9770.718434,5181.441594,-74004.825107
474.174843,592.164754,2368.659014,-75996.673402
474.177395,1332.370696,5033.400406,-75996.673402
474.179947,-3701.029710,-1924.535449,-75996.673402
474.182500,4589.276840,-592.164754,-74464.482406
474.185061,9326.594869,148.041188,-76149.892501
474.187623,-8290.306550,5625.565159,-77222.426198
474.190185,5181.441594,10362.883188,-75383.797003
474.192747,15692.365970,1332.370696,-73698.386908
474.195309,13323.706956,9178.553681,-72166.195912
474.197871,16728.654289,3849.070898,-73238.729609
474.200433,1628.453072,1036.288319,-76762.768900
474.202995,5477.523971,8438.347739,-76762.768900
474.205556,-2368.659014,10510.924376,-76149.892501
474.208118,14508.036463,-2664.741391,-74158.044206
474.210680,4589.276840,-10807.006753,-74004.825107
474.213242,-3404.947333,12879.583391,-73698.386908
474.215804,-3256.906145,-4885.359217,-76609.549800
474.218366,-1776.494261,1332.370696,-75690.235202
474.220928,-1332.370696,-2220.617826,-76149.892501
474.223490,148.041188,3701.029710,-74311.263306
474.226051,-6365.771101,2072.576638,-74924.139704
474.228613,-2072.576638,-296.082377,-73545.167808
474.231175,17616.901420,-11251.130318,-75383.797003
474.233737,-2072.576638,-9326.594869,-76149.892501
474.236299,-19097.313304,10510.924376,-79520.712692
474.238861,-25315.043216,20725.766376,-78294.959896
474.241423,-5773.606348,19689.478057,-79673.931792
474.243985,-10807.006753,1480.411884,-76456.330700
474.246547,22650.301825,-4885.359217,-72779.072310
474.249108,-7402.059420,9918.759623,-75230.577904
474.251670,-18653.189738,12583.501014,-76762.768900
474.254232,-4145.153275,-6513.812290,-74464.482406
474.256794,14211.954086,-14656.077652,-73851.606007
474.259356,-20725.766376,3256.906145,-76609.549800
474.261918,2368.659014,2368.659014,-77222.426198
474.264480,-2368.659014,5773.606348,-76303.111601
474.267042,22206.178260,11399.171507,-72472.634111
474.269603,7254.018232,12731.542202,-73545.167808
474.272165,6661.853478,11251.130318,-73238.729609
474.274727,2072.576638,2072.576638,-76149.892501
474.277289,-2220.617826,9770.718434,-75537.016103
474.279851,10658.965565,6661.853478,-74924.139704
474.282413,3849.070898,15840.407159,-74158.044206
474.284975,4293.194464,7698.141797,-74464.482406
474.287507,1628.453072,1776.494261,-74158.044206
474.290040,13767.830521,-11843.295072,-74924.139704
474.292572,-13323.706956,18505.148550,-77069.207099
474.295105,-44116.274143,44856.480085,-78601.398095
474.297637,11991.336260,12139.377449,-72319.415011
474.300169,45152.562462,9622.677246,-69408.252119
474.302702,-3997.112087,14211.954086,-74617.701505
474.305234,4293.194464,13619.789333,-75077.358804
474.307767,-6513.812290,16284.530724,-76456.330700
474.310299,31236.690752,-4145.153275,-72319.415011
474.312832,12139.377449,-296.082377,-73698.386908
474.315364,0.000000,15544.324782,-75996.673402
474.317897,-12435.459826,17172.777854,-78141.740796
474.320429,15544.324782,-5773.606348,-74464.482406
474.322962,-444.123565,-5477.523971,-73545.167808
474.325494,1776.494261,2072.576638,-74617.701505
474.328026,-10362.883188,-9178.553681,-77988.521696
474.330559,-4293.194464,-5477.523971,-76303.111601
474.333091,-6069.688724,-2516.700203,-76303.111601
474.335624,-444.123565,2072.576638,-74617.701505
474.338156,-5921.647536,296.082377,-75383.797003
474.340689,2072.576638,-6809.894666,-74770.920605
474.343221,11399.171507,-5921.647536,-73545.167808
474.345754,-6069.688724,8142.265362,-75843.454302
474.348286,3108.864956,-9030.512492,-75690.235202
474.350819,-888.247130,5181.441594,-75843.454302
474.353351,2664.741391,-9326.594869,-73545.167808
474.355884,-3849.070898,11251.130318,-73545.167808
474.358416,4737.318029,2368.659014,-72779.072310
474.360948,-3108.864956,9326.594869,-74617.701505
474.363481,-11251.130318,1480.411884,-75996.673402
474.366013,-5625.565159,-4737.318029,-76303.111601
474.368546,1480.411884,-14952.160028,-74311.263306
474.371078,-4145.153275,296.082377,-75690.235202
474.373611,-7698.141797,4737.318029,-75077.358804
474.376143,6217.729913,2516.700203,-75843.454302
474.378676,8734.430116,18357.107362,-74004.825107
474.381208,16876.695478,9474.636058,-75383.797003
474.383741,5033.400406,9474.636058,-74311.263306
474.386273,7254.018232,-1628.453072,-76149.892501
474.388819,-7846.182985,9474.636058,-75537.016103
474.391365,6365.771101,7254.018232,-75537.016103
474.393911,4589.276840,16876.695478,-74004.825107
474.396457,3701.029710,6957.935855,-75537.016103
474.399003,-2220.617826,12139.377449,-76303.111601
474.401549,-7105.977043,15544.324782,-75690.235202
474.404095,-3997.112087,19097.313304,-74617.701505
474.406641,2368.659014,13619.789333,-73698.386908
474.409186,7105.977043,24870.919651,-75077.358804
474.411732,1184.329507,22502.260637,-75537.016103
474.414278,12435.459826,10955.047942,-74158.044206
474.416824,16432.571912,4145.153275,-72779.072310
474.419370,9622.677246,9178.553681,-73698.386908
474.421916,9770.718434,10658.965565,-73698.386908
474.424462,9326.594869,1924.535449,-74770.920605
474.427008,11103.089130,9770.718434,-75230.577904
474.429554,2220.617826,-148.041188,-76456.330700
474.432100,-24278.754898,2072.576638,-76456.330700
474.434646,-2220.617826,-9326.594869,-75843.454302
474.437192,-5329.482782,4145.153275,-74770.920605
474.439738,-2368.659014,1480.411884,-75537.016103
474.442284,-7254.018232,5181.441594,-76609.549800
474.444830,4737.318029,0.000000,-75230.577904
474.447376,2960.823768,-740.205942,-74617.701505
474.449921,-3997.112087,444.123565,-74464.482406
474.452467,-5181.441594,-7698.141797,-75383.797003
474.455013,10362.883188,-14359.995275,-75537.016103
474.457559,-14952.160028,13175.665768,-78448.178995
474.460105,-15396.283594,7698.141797,-77835.302597
474.462651,-11547.212695,-7846.182985,-78448.178995
474.465197,-34641.638086,9918.759623,-77988.521696
474.467743,2664.741391,-296.082377,-72932.291410
474.470289,8142.265362,-148.041188,-73851.606007
474.472835,-14211.954086,8142.265362,-76456.330700
474.475381,-21317.931130,4145.153275,-77988.521696
474.477927,-148.041188,-3701.029710,-75537.016103
474.480473,-4589.276840,-3552.988522,-73391.948708
474.483019,11547.212695,1924.535449,-73391.948708
474.485565,-8586.388927,9030.512492,-75077.358804
474.488111,21021.848753,7550.100608,-74617.701505
474.490667,9178.553681,13175.665768,-74617.701505
474.493223,11695.253884,11399.171507,-73085.510509
474.495779,1036.288319,8142.265362,-74311.263306
474.498335,6957.935855,6217.729913,-74004.825107
474.500891,14804.118840,-444.123565,-74004.825107
474.503448,2220.617826,16432.571912,-74311.263306
474.506004,-2072.576638,7698.141797,-76149.892501
474.508560,8142.265362,8142.265362,-74770.920605
474.511116,1332.370696,4145.153275,-74464.482406
474.513672,-2516.700203,14359.995275,-74158.044206
474.516229,12879.583391,-740.205942,-72166.195912
474.518785,16432.571912,6365.771101,-75996.673402
474.521341,-9622.677246,12287.418637,-78294.959896
474.523897,6069.688724,13323.706956,-75996.673402
474.526453,10066.800811,4885.359217,-74004.825107
474.529009,17764.942608,3552.988522,-71859.757712
474.531566,4293.194464,13323.706956,-74158.044206
474.534122,5773.606348,7994.224174,-75383.797003
474.536678,12435.459826,5329.482782,-75996.673402
474.539234,4441.235652,4589.276840,-77069.207099
474.541790,-23686.590144,-148.041188,-76149.892501
474.544347,5181.441594,-9030.512492,-74617.701505
474.546903,-5477.523971,3849.070898,-74158.044206
474.549459,1628.453072,2220.617826,-75383.797003
474.552015,-9030.512492,2220.617826,-75690.235202
474.554571,10066.800811,3404.947333,-74924.139704
474.557128,-1628.453072,888.247130,-74311.263306
474.559684,-444.123565,444.123565,-73391.948708
474.562240,-6069.688724,-5773.606348,-74924.139704
474.564796,1480.411884,16284.530724,-76609.549800
474.567352,-6513.812290,21169.889941,-74617.701505
474.569908,6957.935855,18357.107362,-73545.167808
474.572465,19689.478057,4145.153275,-70480.785816
474.575021,20429.683999,-6217.729913,-71859.757712
474.577577,-15100.201217,6217.729913,-75077.358804
474.580133,3108.864956,-5625.565159,-75537.016103
474.582689,-3404.947333,-6661.853478,-76303.111601
474.585246,-5921.647536,-3552.988522,-77069.207099
474.587802,-7994.224174,-13471.748144,-76762.768900
474.590358,-16876.695478,7254.018232,-77222.426198
474.592922,-6809.894666,2368.659014,-75230.577904
474.595487,9030.512492,10955.047942,-74464.482406
474.598052,12731.542202,12879.583391,-72779.072310
474.600617,18653.189738,15396.283594,-75537.016103
474.603182,10807.006753,3997.112087,-74770.920605
474.605747,9178.553681,4441.235652,-74770.920605
474.608312,-3552.988522,8734.430116,-74158.044206
474.610877,14508.036463,5181.441594,-74158.044206
474.613442,2664.741391,14804.118840,-75383.797003
474.616007,-1628.453072,10955.047942,-76303.111601
474.618572,-3701.029710,21762.054695,-75690.235202
474.621137,21910.095883,-5329.482782,-70634.004916
474.623702,14359.995275,-1332.370696,-70327.566716
474.626267,10214.842000,2368.659014,-73851.606007
474.628832,1776.494261,8290.306550,-75843.454302
474.631397,5181.441594,8438.347739,-76762.768900
474.633962,10066.800811,3849.070898,-74311.263306
474.636527,12287.418637,6513.812290,-72932.291410
474.639092,18061.024985,2368.659014,-72932.291410
474.641657,1924.535449,7402.059420,-74158.044206
474.644222,4589.276840,6217.729913,-75843.454302
474.646787,9474.636058,14211.954086,-74924.139704
474.649352,13323.706956,-5033.400406,-75690.235202
474.651917,-10362.883188,-5477.523971,-73698.386908
474.654482,3404.947333,-7994.224174,-73391.948708
474.657047,-7105.977043,-5773.606348,-76609.549800
474.659612,-12583.501014,3701.029710,-77069.207099
474.662177,-5329.482782,-148.041188,-77069.207099
474.664742,5181.441594,3404.947333,-75537.016103
474.667307,3108.864956,-1184.329507,-73851.606007
474.669872,-4885.359217,1184.329507,-75383.797003
474.672437,-4885.359217,-9030.512492,-75077.358804
474.675002,-888.247130,5033.400406,-76762.768900
474.677567,1332.370696,5033.400406,-77375.645298
474.680132,2516.700203,-9918.759623,-76456.330700
474.682697,9178.553681,-13619.789333,-74158.044206
474.685262,-6661.853478,-2516.700203,-74004.825107
474.687827,-6661.853478,-444.123565,-75996.673402
474.690392,-6661.853478,888.247130,-76303.111601
474.692957,-4737.318029,-1924.535449,-77528.864398
474.695493,-15396.283594,2072.576638,-77835.302597
474.698029,-12879.583391,3108.864956,-75690.235202
474.700566,12879.583391,-2516.700203,-72932.291410
474.703102,-5477.523971,7994.224174,-73698.386908
474.705638,19393.395680,6957.935855,-73391.948708
474.708174,8586.388927,10510.924376,-75537.016103
474.710711,22946.384202,7698.141797,-74464.482406
474.713247,-3849.070898,2812.782580,-74770.920605
474.715783,7698.141797,7698.141797,-72625.853210
474.718319,9030.512492,-2960.823768,-74004.825107
474.720856,8586.388927,11695.253884,-74464.482406
474.723392,-4885.359217,4737.318029,-77528.864398
474.725928,6513.812290,18505.148550,-75537.016103
474.728464,2072.576638,7698.141797,-74004.825107
474.731001,20873.807564,7254.018232,-70787.224015
474.733537,1480.411884,11991.336260,-72779.072310
474.736073,-8438.347739,28719.990550,-76303.111601
474.738609,17468.860231,13915.871710,-75996.673402
474.741146,10362.883188,4885.359217,-75383.797003
474.743682,11251.130318,6809.894666,-72319.415011
474.746218,21465.972318,-1628.453072,-71706.538613
474.748754,9030.512492,5181.441594,-73085.510509
474.751291,1036.288319,10214.842000,-75996.673402
474.753827,7550.100608,16432.571912,-76303.111601
474.756363,11547.212695,-3404.947333,-75690.235202
474.758899,-14211.954086,-2368.659014,-75690.235202
474.761436,-3552.988522,-7105.977043,-75077.358804
474.763972,-9918.759623,-1332.370696,-74617.701505
474.766508,-6957.935855,2664.741391,-75230.577904
474.769044,148.041188,-1628.453072,-76762.768900
474.771580,3404.947333,1628.453072,-75996.673402
474.774117,-296.082377,-148.041188,-75537.016103
474.776653,-2516.700203,1924.535449,-74464.482406
474.779189,-4441.235652,-7994.224174,-75537.016103
474.781725,-7846.182985,11399.171507,-76915.987999
474.784262,-1184.329507,9030.512492,-77988.521696
474.786798,-2664.741391,3404.947333,-77375.645298
474.789334,-6513.812290,10066.800811,-75077.358804
474.791870,1332.370696,1776.494261,-72166.195912
474.794407,-592.164754,2220.617826,-72472.634111
474.796956,-5033.400406,1184.329507,-76303.111601
474.799504,-9770.718434,-2516.700203,-78294.959896
474.802053,-5921.647536,-4885.359217,-79061.055394
474.804602,-12583.501014,1628.453072,-76609.549800
474.807151,1332.370696,-592.164754,-73545.167808
474.809700,148.041188,4441.235652,-73545.167808
474.812249,11103.089130,16432.571912,-74158.044206
474.814798,17468.860231,11103.089130,-75537.016103
474.817347,11251.130318,11547.212695,-75690.235202
474.819895,6365.771101,6217.729913,-75077.358804
474.822444,3256.906145,9770.718434,-72625.853210
474.824993,13323.706956,740.205942,-72166.195912
474.827542,3701.029710,10807.006753,-74158.044206
474.830091,-5329.482782,10510.924376,-77069.207099
474.832640,6217.729913,4589.276840,-75383.797003
474.835189,18505.148550,-1924.535449,-73851.606007
474.837738,10066.800811,-7105.977043,-71859.757712
474.840286,-11399.171507,16136.489536,-75383.797003
474.842835,-4441.235652,20281.642811,-77069.207099
474.845384,13175.665768,11399.171507,-75843.454302
474.847933,10510.924376,5033.400406,-75230.577904
474.850482,5477.523971,12287.418637,-74464.482406
474.853031,9622.677246,7994.224174,-72472.634111
474.855580,17468.860231,-3997.112087,-71859.757712
474.858129,12435.459826,9770.718434,-73698.386908
474.860677,-3997.112087,15692.365970,-78754.617194
474.863226,-6957.935855,296.082377,-78448.178995
474.865775,-1628.453072,-14359.995275,-75690.235202
474.868324,-10510.924376,3552.988522,-72779.072310
474.870873,2368.659014,-3552.988522,-73238.729609
474.873422,-10658.965565,6217.729913,-76149.892501
474.875971,592.164754,148.041188,-77988.521696
474.878520,1628.453072,2960.823768,-76303.111601
474.881068,2072.576638,-3552.988522,-74617.701505
474.883617,-148.041188,2664.741391,-72932.291410
474.886166,-8290.306550,5773.606348,-76303.111601
474.888715,-9474.636058,16876.695478,-75843.454302
474.891264,-1628.453072,9326.594869,-78141.740796
474.893813,-6957.935855,20725.766376,-76915.987999
474.896362,-3108.864956,4885.359217,-74464.482406
474.898920,-1184.329507,-4145.153275,-72472.634111
474.901478,-444.123565,-4293.194464,-73391.948708
474.904037,-5773.606348,-5773.606348,-77069.207099
474.906595,-20873.807564,4589.276840,-79214.274493
474.909154,-8142.265362,-1628.453072,-78601.398095
474.911712,11103.089130,-3108.864956,-73085.510509
474.914271,-6513.812290,5477.523971,-72472.634111
474.916829,6661.853478,8586.388927,-73085.510509
474.919387,10807.006753,13619.789333,-75383.797003
474.921946,25759.166782,7994.224174,-74311.263306
474.924504,10362.883188,1332.370696,-75537.016103
474.927063,13619.789333,-4737.318029,-74464.482406
474.929621,7402.059420,-3256.906145,-73085.510509
474.932179,-4737.318029,9178.553681,-75077.358804
474.934738,-6069.688724,5625.565159,-76762.768900
474.937296,13323.706956,17912.983796,-74924.139704
474.939855,22354.219448,-7550.100608,-73391.948708
474.942413,8142.265362,592.164754,-71553.319513
474.944972,3108.864956,296.082377,-72625.853210
474.947530,7550.100608,-1332.370696,-74464.482406
474.950088,1332.370696,6217.729913,-77528.864398
474.952647,4145.153275,7254.018232,-78141.740796
474.955205,8734.430116,13619.789333,-76303.111601
474.957764,21169.889941,4737.318029,-70940.443115
474.960322,9030.512492,4589.276840,-72166.195912
474.962880,9030.512492,7105.977043,-73545.167808
474.965439,148.041188,16432.571912,-77682.083497
474.967997,-13175.665768,4145.153275,-78754.617194
474.970556,4737.318029,-11695.253884,-75843.454302
474.973114,-3997.112087,-1184.329507,-72625.853210
474.975673,-1036.288319,-3701.029710,-73391.948708
474.978231,-17024.736666,6365.771101,-76303.111601
474.980789,2516.700203,-1776.494261,-77222.426198
474.983348,2960.823768,3849.070898,-76762.768900
474.985906,4737.318029,-3256.906145,-75996.673402
474.988465,-4293.194464,-4145.153275,-74464.482406
474.991023,7254.018232,-3849.070898,-73698.386908
474.993581,7994.224174,-8734.430116,-74924.139704
474.996140,-6957.935855,2812.782580,-79520.712692
474.998698,-7846.182985,1628.453072,-76915.987999
475.001265,11251.130318,-1332.370696,-73698.386908
475.003832,3552.988522,-6365.771101,-71859.757712
475.006398,-8882.471304,6957.935855,-73238.729609
475.008965,-18357.107362,-888.247130,-76609.549800
475.011532,-1776.494261,-148.041188,-77528.864398
475.014098,-7994.224174,-3849.070898,-77375.645298
475.016665,11103.089130,3108.864956,-75383.797003
475.019232,-14656.077652,7402.059420,-73391.948708
475.021798,18357.107362,10510.924376,-71400.100414
475.024365,14952.160028,10066.800811,-74311.263306
475.026932,20281.642811,12287.418637,-74311.263306
475.029499,-444.123565,8586.388927,-76915.987999
475.032065,19245.354492,1036.288319,-73085.510509
475.034632,5329.482782,-2368.659014,-73545.167808
475.037199,-1628.453072,10214.842000,-73238.729609
475.039765,-9030.512492,7994.224174,-76915.987999
475.042332,16876.695478,-6661.853478,-75383.797003
475.044899,6365.771101,2220.617826,-76762.768900
475.047465,-8142.265362,2220.617826,-76915.987999
475.050032,-25759.166782,17172.777854,-75690.235202
475.052599,3404.947333,10214.842000,-76609.549800
475.055166,19689.478057,-444.123565,-76456.330700
475.057732,3404.947333,5181.441594,-76609.549800
475.060299,19985.560434,3701.029710,-75690.235202
475.062866,-5033.400406,8290.306550,-74770.920605
475.065432,14656.077652,-4737.318029,-72625.853210
475.067999,6069.688724,1480.411884,-72779.072310
475.070566,15248.242405,3552.988522,-76456.330700
475.073132,-33013.185013,5033.400406,-81052.903688
475.075699,10066.800811,-9326.594869,-77222.426198
475.078266,-16580.613101,1036.288319,-73851.606007
475.080832,5477.523971,2516.700203,-71859.757712
475.083399,-20281.642811,2516.700203,-76609.549800
475.085966,9770.718434,5773.606348,-75996.673402
475.088533,-4885.359217,0.000000,-78141.740796
475.091099,8290.306550,3404.947333,-74158.044206
475.093666,-1776.494261,-18949.272115,-74311.263306
475.096233,6217.729913,-10955.047942,-74770.920605
475.098799,-41747.615129,28719.990550,-81972.218286
475.101366,-36714.214723,22354.219448,-79673.931792
475.103905,22650.301825,4441.235652,-73545.167808
475.106443,21169.889941,-6809.894666,-72166.195912
475.108982,-19689.478057,18505.148550,-73391.948708
475.111520,-10658.965565,4737.318029,-73851.606007
475.114059,7550.100608,-15692.365970,-77222.426198
475.116597,18061.024985,-14063.912898,-74617.701505
475.119136,12731.542202,-3849.070898,-75996.673402
475.121675,-19245.354492,10658.965565,-76456.330700
475.124213,0.000000,740.205942,-74617.701505
475.126752,15248.242405,12879.583391,-71706.538613
475.129290,21169.889941,11843.295072,-72932.291410
475.131829,3701.029710,10066.800811,-76303.111601
475.134367,12879.583391,-4145.153275,-77375.645298
475.136906,-5329.482782,5625.565159,-75690.235202
475.139445,1036.288319,13175.665768,-74004.825107
475.141983,740.205942,13471.748144,-72319.415011
475.144522,12583.501014,8142.265362,-74158.044206
475.147060,16136.489536,-2960.823768,-75690.235202
475.149599,740.205942,5625.565159,-75537.016103
475.152138,-1924.535449,2072.576638,-74311.263306
475.154676,17912.983796,-2220.617826,-71400.100414
475.157215,12435.459826,4441.235652,-74770.920605
475.159753,2220.617826,8142.265362,-76456.330700
475.162292,-888.247130,13175.665768,-77375.645298
475.164830,16728.654289,6513.812290,-73851.606007
475.167369,12139.377449,2516.700203,-72625.853210
475.169908,8290.306550,8438.347739,-72932.291410
475.172446,-12435.459826,16284.530724,-77375.645298
475.174985,1628.453072,-1036.288319,-76915.987999
475.177523,5329.482782,-13323.706956,-78141.740796
475.180062,-9474.636058,2812.782580,-74004.825107
475.182600,-6217.729913,-1628.453072,-73698.386908
475.185139,-10658.965565,1776.494261,-74004.825107
475.187678,2516.700203,-1332.370696,-76303.111601
475.190216,-2072.576638,4885.359217,-75383.797003
475.192755,7254.018232,-6217.729913,-76303.111601
475.195293,3849.070898,-2072.576638,-73545.167808
475.197832,7254.018232,-5773.606348,-74158.044206
475.200370,5329.482782,-18653.189738,-74924.139704
475.202909,-2220.617826,-10510.924376,-78141.740796
475.205460,2072.576638,-11991.336260,-77835.302597
475.208010,-15100.201217,-9474.636058,-77069.207099
475.210561,7254.018232,-7254.018232,-73238.729609
475.213111,-8734.430116,1480.411884,-73698.386908
475.215662,-8734.430116,-1332.370696,-75383.797003
475.218212,-11695.253884,1184.329507,-77528.864398
475.220763,13471.748144,-3701.029710,-76609.549800
475.223313,-9326.594869,4145.153275,-76149.892501
475.225864,7994.224174,-4145.153275,-73851.606007
475.228414,-8882.471304,19689.478057,-74464.482406
475.230965,26055.249158,6661.853478,-74158.044206
475.233515,11251.130318,7550.100608,-74311.263306
475.236066,10066.800811,8882.471304,-76915.987999
475.238616,-19541.436869,13175.665768,-76762.768900
475.241167,148.041188,14063.912898,-74924.139704
475.243718,-2220.617826,7402.059420,-73851.606007
475.246268,7994.224174,9030.512492,-75537.016103
475.248819,-16284.530724,15692.365970,-76762.768900
475.251369,10658.965565,2812.782580,-75996.673402
475.253920,4885.359217,10510.924376,-72779.072310
475.256470,-7994.224174,16728.654289,-74311.263306
475.259021,296.082377,20133.601622,-75690.235202
475.261571,4145.153275,3849.070898,-76915.987999
475.264122,14804.118840,4589.276840,-75996.673402
475.266672,1332.370696,8734.430116,-73698.386908
475.269223,3108.864956,8142.265362,-74004.825107
475.271773,6957.935855,5625.565159,-73545.167808
475.274324,20577.725188,-3849.070898,-74158.044206
475.276875,-17024.736666,-1036.288319,-77988.521696
475.279425,-5773.606348,-5329.482782,-78294.959896
475.281976,-19393.395680,-888.247130,-76915.987999
475.284526,-4441.235652,888.247130,-73545.167808
475.287077,-9770.718434,4589.276840,-74617.701505
475.289627,1332.370696,5477.523971,-75077.358804
475.292178,-1628.453072,2368.659014,-76149.892501
475.294728,9326.594869,-2072.576638,-75230.577904
475.297279,3552.988522,-17764.942608,-75383.797003
475.299829,3997.112087,-7994.224174,-74004.825107
475.302380,-8586.388927,-9918.759623,-76149.892501
475.304930,-1776.494261,-10214.842000,-78907.836294
475.307457,-8882.471304,-6957.935855,-77988.521696
475.309983,-5625.565159,-1036.288319,-75996.673402
475.312509,-3108.864956,2664.741391,-72779.072310
475.315036,-5773.606348,3849.070898,-74158.044206
475.317562,-14656.077652,1332.370696,-76303.111601
475.320088,-13915.871710,-740.205942,-77375.645298
475.322614,13619.789333,-3997.112087,-76149.892501
475.325141,-4441.235652,6217.729913,-75230.577904
475.327667,9030.512492,7994.224174,-72625.853210
475.330193,14656.077652,14804.118840,-73545.167808
475.332719,16580.613101,10658.965565,-74464.482406
475.335246,11399.171507,4737.318029,-76149.892501
475.337772,12435.459826,888.247130,-75230.577904
475.340298,6661.853478,-4293.194464,-74617.701505
475.342825,-4293.194464,10955.047942,-74158.044206
475.345351,-3404.947333,10362.883188,-74924.139704
475.347877,4293.194464,9326.594869,-74617.701505
475.350403,10807.006753,4737.318029,-74617.701505
475.352930,14952.160028,-3256.906145,-73545.167808
475.355456,-10214.842000,17912.983796,-75690.235202
475.357982,-5625.565159,11843.295072,-74770.920605
475.360509,15692.365970,8734.430116,-76456.330700
475.363035,3256.906145,6217.729913,-76149.892501
475.365561,13767.830521,10214.842000,-74311.263306
475.368087,8290.306550,4885.359217,-73545.167808
475.370614,16432.571912,8586.388927,-72319.415011
475.373140,-8586.388927,15692.365970,-74924.139704
475.375666,6513.812290,-888.247130,-75537.016103
475.378193,-1776.494261,-9474.636058,-77069.207099
475.380719,3404.947333,-2368.659014,-74464.482406
475.383245,-14804.118840,-2072.576638,-76303.111601
475.385771,-3849.070898,-888.247130,-73391.948708
475.388298,-7550.100608,-3701.029710,-76609.549800
475.390824,-1628.453072,4145.153275,-75690.235202
475.393350,4441.235652,-4737.318029,-76609.549800
475.395876,3701.029710,6217.729913,-73238.729609
475.398403,10807.006753,-7550.100608,-73698.386908
475.400929,8734.430116,-17320.819043,-72166.195912
475.403455,13323.706956,-18949.272115,-76149.892501
475.405982,-5329.482782,-15692.365970,-79673.931792
475.408523,-14211.954086,-9030.512492,-76915.987999
475.411064,9474.636058,-8882.471304,-73545.167808
475.413605,-11251.130318,2960.823768,-74158.044206
475.416146,-14359.995275,5329.482782,-76149.892501
475.418687,-15544.324782,1776.494261,-76456.330700
475.421228,19097.313304,-2664.741391,-75383.797003
475.423769,-9178.553681,8882.471304,-74770.920605
475.426310,23982.672521,4145.153275,-71093.662214
475.428851,-888.247130,10362.883188,-73698.386908
475.431392,28127.825796,7846.182985,-72779.072310
475.433933,5921.647536,1480.411884,-75843.454302
475.436474,25463.084405,-2664.741391,-74311.263306
475.439015,-18653.189738,12731.542202,-77375.645298
475.441556,-1036.288319,13471.748144,-75383.797003
475.444097,-4145.153275,6217.729913,-74924.139704
475.446638,9474.636058,-6809.894666,-74770.920605
475.449179,-15840.407159,19541.436869,-78754.617194
475.451720,-16728.654289,17024.736666,-76762.768900
475.454261,-6513.812290,10658.965565,-74004.825107
475.456802,33013.185013,8290.306550,-70787.224015
475.459344,6365.771101,9474.636058,-76303.111601
475.461885,-6217.729913,20133.601622,-77682.083497
475.464426,-3552.988522,10658.965565,-77069.207099
475.466967,31680.814318,-6217.729913,-72625.853210
475.469508,6365.771101,5477.523971,-73545.167808
475.472049,-13915.871710,25018.960840,-76762.768900
475.474590,-5625.565159,-1184.329507,-76609.549800
475.477131,21317.931130,-11991.336260,-74464.482406
475.479672,148.041188,-1036.288319,-73391.948708
475.482213,-12879.583391,-3256.906145,-76762.768900
475.484754,-18801.230927,2368.659014,-74770.920605
475.487295,7550.100608,-5921.647536,-74464.482406
475.489836,-3404.947333,-1776.494261,-75690.235202
475.492377,6957.935855,148.041188,-74617.701505
475.494918,-592.164754,-6957.935855,-75843.454302
475.497459,-8882.471304,11843.295072,-75690.235202
475.500000,-6809.894666,11399.171507,-75077.358804
475.502541,-5329.482782,6957.935855,-76303.111601
475.505082,-1036.288319,6069.688724,-77069.207099
475.507623,740.205942,1924.535449,-75690.235202
475.510177,-2368.659014,-2664.741391,-74464.482406
475.512730,-5773.606348,-2516.700203,-73545.167808
475.515283,-12435.459826,-6957.935855,-75690.235202
475.517836,-22798.343014,2516.700203,-78754.617194
475.520389,8438.347739,-2220.617826,-77375.645298
475.522942,-740.205942,6661.853478,-75383.797003
475.525496,18357.107362,8734.430116,-71553.319513
475.528049,7105.977043,10955.047942,-73238.729609
475.530602,23242.466579,8586.388927,-73085.510509
475.533155,6365.771101,2516.700203,-75996.673402
475.535708,24278.754898,-6661.853478,-74617.701505
475.538262,-10658.965565,3108.864956,-77835.302597
475.540815,-6513.812290,13915.871710,-75690.235202
475.543368,-2516.700203,11695.253884,-75383.797003
475.545921,3256.906145,5625.565159,-76303.111601
475.548474,-4145.153275,12435.459826,-75996.673402
475.551027,11103.089130,5625.565159,-73698.386908
475.553581,17912.983796,-2220.617826,-71400.100414
475.556134,4145.153275,5625.565159,-74311.263306
475.558687,3256.906145,4885.359217,-76456.330700
475.561240,11103.089130,1184.329507,-76149.892501
475.563793,8290.306550,-888.247130,-74311.263306
475.566347,4145.153275,7698.141797,-74617.701505
475.568900,11399.171507,6365.771101,-73238.729609
475.571453,3404.947333,3552.988522,-74770.920605
475.574006,-13915.871710,-1776.494261,-76149.892501
475.576559,8734.430116,-11251.130318,-76456.330700
475.579112,-22058.137072,2072.576638,-76762.768900
475.581666,-8586.388927,1628.453072,-75537.016103
475.584219,-11843.295072,1924.535449,-74464.482406
475.586772,7846.182985,444.123565,-74617.701505
475.589325,-6809.894666,5033.400406,-76149.892501
475.591888,4145.153275,2516.700203,-76149.892501
475.594451,-2072.576638,-7254.018232,-75996.673402
475.597014,-13175.665768,18209.066173,-76149.892501
475.599578,-15840.407159,17320.819043,-76762.768900
475.602141,-4441.235652,14656.077652,-75996.673402
475.604704,15544.324782,2664.741391,-74464.482406
475.607267,-1332.370696,-1628.453072,-74770.920605
475.609831,-11251.130318,3701.029710,-73391.948708
475.612394,-10658.965565,4885.359217,-74924.139704
475.614957,-4589.276840,-5773.606348,-74770.920605
475.617520,13767.830521,-8882.471304,-75843.454302
475.620083,-14508.036463,3997.112087,-78141.740796
475.622647,5033.400406,-296.082377,-75996.673402
475.625210,-8290.306550,19541.436869,-73698.386908
475.627773,25611.125593,9770.718434,-72319.415011
475.630336,9770.718434,8142.265362,-73238.729609
475.632899,15988.448347,11991.336260,-76456.330700
475.635463,-9622.677246,12287.418637,-76303.111601
475.638026,1184.329507,13471.748144,-74924.139704
475.640589,7698.141797,4589.276840,-74464.482406
475.643152,11695.253884,-9918.759623,-73085.510509
475.645716,-8734.430116,17468.860231,-78448.178995
475.648279,-13915.871710,17616.901420,-77528.864398
475.650842,21762.054695,-7550.100608,-71400.100414
475.653405,30644.525999,7550.100608,-70021.128517
475.655968,-6217.729913,8586.388927,-76915.987999
475.658532,-4145.153275,13915.871710,-78294.959896
475.661095,2072.576638,2960.823768,-76456.330700
475.663658,23242.466579,-3256.906145,-73238.729609
475.666221,-740.205942,8882.471304,-74617.701505
475.668784,-8142.265362,22058.137072,-75843.454302
475.671348,-33605.349767,6513.812290,-78601.398095
475.673911,19689.478057,-11991.336260,-76303.111601
475.676474,-10658.965565,3849.070898,-74311.263306
475.679037,2368.659014,-1480.411884,-73851.606007
475.681600,-16136.489536,-1628.453072,-74770.920605
475.684164,14656.077652,-10066.800811,-74617.701505
475.686727,-6069.688724,740.205942,-75230.577904
475.689290,5625.565159,-5329.482782,-76456.330700
475.691853,3849.070898,-9474.636058,-74158.044206
475.694424,1628.453072,296.082377,-75843.454302
475.696994,-12583.501014,-148.041188,-75537.016103
475.699564,3701.029710,-12731.542202,-76915.987999
475.702134,6217.729913,-7994.224174,-76149.892501
475.704704,-5033.400406,-7550.100608,-75690.235202
475.707274,-10066.800811,-148.041188,-74004.825107
475.709845,-3849.070898,888.247130,-73698.386908
475.712415,-5033.400406,-3404.947333,-75077.358804
475.714985,-1776.494261,1628.453072,-76762.768900
475.717555,-8438.347739,3997.112087,-77375.645298
475.720125,17172.777854,-3849.070898,-75690.235202
475.722696,-2368.659014,19541.436869,-72779.072310
475.725266,22354.219448,9770.718434,-72625.853210
475.727836,7698.141797,9918.759623,-73851.606007
475.730406,26203.290347,3552.988522,-75230.577904
475.732976,-12583.501014,11399.171507,-76915.987999
475.735547,2812.782580,16284.530724,-74311.263306
475.738117,5625.565159,11843.295072,-72932.291410
475.740687,4293.194464,13323.706956,-73391.948708
475.743257,5477.523971,3552.988522,-74311.263306
475.745827,17320.819043,-4589.276840,-74464.482406
475.748397,2072.576638,12731.542202,-74770.920605
475.750968,-8438.347739,11103.089130,-75996.673402
475.753538,9918.759623,6661.853478,-74924.139704
475.756108,9474.636058,6069.688724,-74770.920605
475.758678,-1332.370696,740.205942,-74924.139704
475.761248,3404.947333,7402.059420,-74617.701505
475.763819,12731.542202,5477.523971,-73085.510509
475.766389,6661.853478,5181.441594,-74158.044206
475.768959,-14804.118840,888.247130,-76456.330700
475.771529,592.164754,-9918.759623,-77988.521696
475.774099,-11251.130318,444.123565,-77069.207099
475.776670,-5329.482782,-1332.370696,-75077.358804
475.779240,-7994.224174,-1480.411884,-74004.825107
475.781810,1480.411884,1924.535449,-75077.358804
475.784380,-1776.494261,3108.864956,-75537.016103
475.786950,4589.276840,-2368.659014,-75843.454302
475.789520,1036.288319,-8290.306550,-76609.549800
475.792091,-3997.112087,-11547.212695,-76915.987999
475.794661,-21021.848753,2960.823768,-77835.302597
475.797237,-19097.313304,1628.453072,-80286.808190
475.799813,4441.235652,-4145.153275,-76456.330700
475.802389,-3552.988522,-3108.864956,-74617.701505
475.804965,-7550.100608,-2516.700203,-73391.948708
475.807541,-13619.789333,4737.318029,-75996.673402
475.810117,-10658.965565,-296.082377,-75690.235202
475.812693,15100.201217,-8438.347739,-76609.549800
475.815269,-12435.459826,5773.606348,-76915.987999
475.817846,11399.171507,1036.288319,-76149.892501
475.820422,-5477.523971,18653.189738,-74004.825107
475.822998,19689.478057,10510.924376,-72472.634111
475.825574,5921.647536,4885.359217,-74924.139704
475.828150,28127.825796,-3997.112087,-74311.263306
475.830726,-14359.995275,10955.047942,-76915.987999
475.833302,-9326.594869,14952.160028,-75996.673402
475.835878,3997.112087,14656.077652,-72625.853210
475.838454,14656.077652,9918.759623,-71553.319513
475.841030,25907.207970,-7846.182985,-73545.167808
475.843606,-6217.729913,13471.748144,-75537.016103
475.846182,-12583.501014,23094.425390,-76456.330700
475.848759,18061.024985,13619.789333,-72625.853210
475.851335,16284.530724,17172.777854,-72166.195912
475.853911,21465.972318,11991.336260,-73851.606007
475.856487,11547.212695,5477.523971,-74617.701505
475.859063,10510.924376,13767.830521,-73238.729609
475.861639,4737.318029,15988.448347,-73545.167808
475.864215,17912.983796,-4293.194464,-72012.976812
475.866791,-1924.535449,-10510.924376,-75690.235202
475.869367,1184.329507,-7402.059420,-76149.892501
475.871943,-21762.054695,-5921.647536,-78601.398095
475.874519,-7846.182985,-444.123565,-73851.606007
475.877095,-11843.295072,2072.576638,-75996.673402
475.879671,6365.771101,4441.235652,-74158.044206
475.882248,0.000000,-1480.411884,-76149.892501
475.884824,5773.606348,-10807.006753,-74770.920605
475.887400,2960.823768,444.123565,-76609.549800
475.889976,-9622.677246,-3849.070898,-76456.330700
475.892552,-6957.935855,-2960.823768,-77069.207099
475.895128,-4589.276840,-5181.441594,-77682.083497
475.897704,-3256.906145,-3108.864956,-76456.330700
475.900284,-9474.636058,2220.617826,-73851.606007
475.902864,-8290.306550,2072.576638,-74004.825107
475.905444,-4145.153275,-7254.018232,-74770.920605
475.908024,-8142.265362,-888.247130,-77528.864398
475.910604,-9622.677246,1924.535449,-77988.521696
475.913184,3552.988522,1628.453072,-77069.207099
475.915764,8290.306550,17616.901420,-72472.634111
475.918344,24870.919651,9326.594869,-71553.319513
475.920925,7846.182985,7550.100608,-72932.291410
475.923505,19393.395680,8734.430116,-74924.139704
475.926085,-10362.883188,8438.347739,-76149.892501
475.928665,10955.047942,444.123565,-74770.920605
475.931245,10955.047942,8882.471304,-73545.167808
475.933825,-13323.706956,11547.212695,-75996.673402
475.936405,-1036.288319,12583.501014,-74617.701505
475.938985,20577.725188,-6069.688724,-73545.167808
475.941565,6217.729913,13619.789333,-73851.606007
475.944145,-14508.036463,14211.954086,-75843.454302
475.946725,12139.377449,14211.954086,-73851.606007
475.949305,18801.230927,5477.523971,-74464.482406
475.951885,17320.819043,3404.947333,-72166.195912
475.954465,13027.624579,12139.377449,-72932.291410
475.957045,2960.823768,12879.583391,-73698.386908
475.959625,24574.837274,-8882.471304,-73238.729609
475.962205,-15248.242405,-4589.276840,-75996.673402
475.964786,6069.688724,-7105.977043,-76915.987999
475.967366,-29312.155303,-2220.617826,-78754.617194
475.969946,-5921.647536,2960.823768,-75077.358804
475.972526,-18357.107362,3256.906145,-75690.235202
475.975106,9474.636058,6365.771101,-74004.825107
475.977686,0.000000,1332.370696,-76303.111601
475.980266,6661.853478,444.123565,-73698.386908
475.982846,2220.617826,1332.370696,-74617.701505
475.985426,13767.830521,3552.988522,-71093.662214
475.988006,18505.148550,-9622.677246,-74004.825107
475.990586,5921.647536,-10362.883188,-76762.768900
475.993166,-15396.283594,-5033.400406,-79061.055394
475.995746,-444.123565,-6069.688724,-74770.920605
475.998326,-6069.688724,-1776.494261,-73085.510509
476.000906,-1480.411884,-6365.771101,-73085.510509
476.003490,-21317.931130,2220.617826,-79061.055394
476.006073,-8438.347739,2072.576638,-77988.521696
476.008656,1924.535449,7105.977043,-76149.892501
476.011239,21614.013506,11991.336260,-72779.072310
476.013823,24870.919651,10362.883188,-71400.100414
476.016406,13027.624579,8142.265362,-72166.195912
476.018989,7550.100608,7846.182985,-75843.454302
476.021572,-888.247130,5625.565159,-75996.673402
476.024155,11251.130318,-5329.482782,-74158.044206
476.026739,7402.059420,4589.276840,-74158.044206
476.029322,-6217.729913,11991.336260,-74770.920605
476.031905,20725.766376,-888.247130,-71553.319513
476.034488,12435.459826,592.164754,-72472.634111
476.037072,18357.107362,-4885.359217,-72319.415011
476.039655,2516.700203,12139.377449,-75383.797003
476.042238,10214.842000,16136.489536,-75843.454302
476.044821,6513.812290,12879.583391,-75537.016103
476.047405,12435.459826,5181.441594,-73545.167808
476.049988,16136.489536,9474.636058,-73085.510509
476.052571,1924.535449,17616.901420,-74004.825107
476.055154,20725.766376,-6069.688724,-73238.729609
476.057737,-10362.883188,-4589.276840,-76303.111601
476.060321,7402.059420,-8142.265362,-76762.768900
476.062904,-27831.743419,-2664.741391,-78448.178995
476.065487,-9178.553681,1776.494261,-75230.577904
476.068070,-15248.242405,-296.082377,-76456.330700
476.070654,8586.388927,5329.482782,-74311.263306
476.073237,-1184.329507,-2368.659014,-76915.987999
476.075820,5921.647536,2664.741391,-72932.291410
476.078403,30496.484810,-37454.420665,-72932.291410
476.080987,17024.736666,-30348.443622,-74158.044206
476.083570,-33901.432144,-1184.329507,-81206.122788
476.086153,-30348.443622,-7994.224174,-81206.122788
476.088736,22206.178260,-17024.736666,-74770.920605
476.091319,-15544.324782,-4737.318029,-74311.263306
476.093903,-17912.983796,17172.777854,-74924.139704
476.096486,-19541.436869,2664.741391,-75690.235202
476.099069,26647.413912,-8586.388927,-73085.510509
476.101652,-16728.654289,1036.288319,-76762.768900
476.104236,9918.759623,2072.576638,-77069.207099
476.106789,-5033.400406,10658.965565,-75537.016103
476.109342,29460.196492,8290.306550,-71400.100414
476.111895,8734.430116,-1776.494261,-72779.072310
476.114447,25907.207970,5921.647536,-74004.825107
476.117000,-20281.642811,20281.642811,-77835.302597
476.119553,-2368.659014,13619.789333,-76303.111601
476.122106,23538.548956,296.082377,-72319.415011
476.124659,9326.594869,-1184.329507,-73085.510509
476.127212,-4293.194464,3256.906145,-74617.701505
476.129765,5625.565159,1184.329507,-75383.797003
476.132318,15840.407159,-7105.977043,-72472.634111
476.134871,12879.583391,-1332.370696,-74924.139704
476.137424,-1036.288319,16580.613101,-77375.645298
476.139977,-6957.935855,7105.977043,-75843.454302
476.142530,10658.965565,3108.864956,-74311.263306
476.145083,19837.519246,-592.164754,-72472.634111
476.147636,5477.523971,13619.789333,-73698.386908
476.150189,-29016.072926,5181.441594,-77682.083497
476.152742,10066.800811,-8586.388927,-76915.987999
476.155295,-5329.482782,592.164754,-74617.701505
476.157848,-1332.370696,-3108.864956,-74464.482406
476.160401,-22946.384202,5033.400406,-74464.482406
476.162954,8438.347739,-9474.636058,-75690.235202
476.165507,1924.535449,2516.700203,-74311.263306
476.168060,740.205942,-7105.977043,-76303.111601
476.170613,4441.235652,-3849.070898,-74004.825107
476.173166,15840.407159,-11695.253884,-74311.263306
476.175719,-1924.535449,2960.823768,-74770.920605
476.178272,-14952.160028,1776.494261,-78907.836294
476.180825,-5329.482782,-2072.576638,-76762.768900
476.183378,4589.276840,-8438.347739,-75077.358804
476.185931,-10066.800811,-1628.453072,-74311.263306
476.188484,-8142.265362,-6217.729913,-75537.016103
476.191037,-15248.242405,1628.453072,-77528.864398
476.193590,-740.205942,-2072.576638,-76915.987999
476.196143,-2368.659014,4885.359217,-77528.864398
476.198696,11843.295072,11843.295072,-74617.701505
476.201249,19689.478057,9474.636058,-73391.948708
476.203802,16284.530724,6957.935855,-71859.757712
476.206355,10658.965565,6069.688724,-74464.482406
476.208916,3552.988522,5773.606348,-75077.358804
476.211477,11547.212695,-11547.212695,-74770.920605
476.214038,1924.535449,11251.130318,-75843.454302
476.216599,-16136.489536,16432.571912,-76609.549800
476.219160,11991.336260,15692.365970,-70940.443115
476.221721,28127.825796,3997.112087,-70174.347617
476.224282,23390.507767,-3108.864956,-70021.128517
476.226843,-7550.100608,11695.253884,-76762.768900
476.229404,5773.606348,12139.377449,-76609.549800
476.231965,7105.977043,4441.235652,-77069.207099
476.234526,12139.377449,-740.205942,-73238.729609
476.237087,19393.395680,-1480.411884,-73085.510509
476.239648,-3997.112087,19245.354492,-74158.044206
476.242210,-5773.606348,-1036.288319,-75230.577904
476.244771,-3108.864956,-3849.070898,-76915.987999
476.247332,5181.441594,-1332.370696,-74924.139704
476.249893,-13323.706956,-3108.864956,-75843.454302
476.252454,-13323.706956,-2516.700203,-74311.263306
476.255015,-8882.471304,-2516.700203,-75996.673402
476.257576,5477.523971,740.205942,-74617.701505
476.260137,2812.782580,3552.988522,-76303.111601
476.262698,-3404.947333,7402.059420,-77069.207099
476.265259,-15396.283594,10807.006753,-76915.987999
476.267820,3108.864956,-740.205942,-75230.577904
476.270381,5477.523971,-8586.388927,-75996.673402
476.272942,-8586.388927,-8734.430116,-78141.740796
476.275503,-9178.553681,-592.164754,-76915.987999
476.278064,-6365.771101,-4885.359217,-74617.701505
476.280626,5477.523971,-10807.006753,-72472.634111
476.283187,-22058.137072,4441.235652,-77069.207099
476.285748,-8882.471304,4885.359217,-77528.864398
476.288309,-6217.729913,4737.318029,-77835.302597
476.290870,25315.043216,12287.418637,-72319.415011
476.293431,16728.654289,11251.130318,-73698.386908
476.295992,10362.883188,13767.830521,-72166.195912
476.298553,5773.606348,5477.523971,-75996.673402
476.301114,4441.235652,4589.276840,-74311.263306
476.303675,13767.830521,-9030.512492,-74924.139704
476.306236,-4589.276840,6365.771101,-77069.207099
476.308797,-2960.823768,-9030.512492,-76456.330700
476.311365,-592.164754,-17764.942608,-76915.987999
476.313933,-19837.519246,8586.388927,-77682.083497
476.316501,-23982.672521,16580.613101,-77528.864398
476.319068,11399.171507,4737.318029,-73391.948708
476.321636,23538.548956,5477.523971,-75077.358804
476.324204,-5033.400406,16876.695478,-76762.768900
476.326772,444.123565,5181.441594,-75077.358804
476.329340,7698.141797,6069.688724,-73238.729609
476.331907,19541.436869,8290.306550,-72319.415011
476.334475,-5181.441594,-2516.700203,-74004.825107
476.337043,5033.400406,-11547.212695,-76609.549800
476.339611,-6069.688724,-1480.411884,-76149.892501
476.342178,-5773.606348,-7698.141797,-76456.330700
476.344746,-21317.931130,4589.276840,-74004.825107
476.347314,1480.411884,-3701.029710,-75077.358804
476.349882,3997.112087,1332.370696,-74311.263306
476.352449,2220.617826,1332.370696,-75230.577904
476.355017,592.164754,-1332.370696,-74617.701505
476.357585,13767.830521,-7105.977043,-73851.606007
476.360153,592.164754,6513.812290,-74311.263306
476.362721,-8142.265362,5625.565159,-77528.864398
476.365288,-296.082377,-2664.741391,-75690.235202
476.367856,1184.329507,-11695.253884,-75230.577904
476.370424,-14211.954086,2960.823768,-74617.701505
476.372992,-5625.565159,-4145.153275,-75230.577904
476.375559,740.205942,148.041188,-75077.358804
476.378127,-3849.070898,-444.123565,-75843.454302
476.380695,1332.370696,-444.123565,-77988.521696
476.383263,592.164754,16728.654289,-76149.892501
476.385831,19837.519246,8438.347739,-75077.358804
476.388398,13619.789333,13915.871710,-72166.195912
476.390966,12287.418637,4441.235652,-74004.825107
476.393534,-10066.800811,14804.118840,-75383.797003
476.396102,3849.070898,2072.576638,-75996.673402
476.398669,15840.407159,-740.205942,-74158.044206
476.401237,-3256.906145,3997.112087,-76609.549800
476.403805,-13619.789333,15840.407159,-76456.330700
476.406373,-3701.029710,6809.894666,-73545.167808
476.408940,12731.542202,15100.201217,-71706.538613
476.411508,18505.148550,15692.365970,-71859.757712
476.414081,22502.260637,10510.924376,-75690.235202
476.416653,3701.029710,9474.636058,-76609.549800
476.419226,13027.624579,6661.853478,-72625.853210
476.421798,18357.107362,7698.141797,-71400.100414
476.424371,22650.301825,-3849.070898,-70940.443115
476.426943,-10510.924376,-8586.388927,-75843.454302
476.429515,-3552.988522,-6069.688724,-77835.302597
476.432088,-22354.219448,-1332.370696,-78754.617194
476.434660,-6513.812290,-148.041188,-74770.920605
476.437233,-15840.407159,3256.906145,-73391.948708
476.439805,6661.853478,4885.359217,-73698.386908
476.442378,6957.935855,-4737.318029,-74924.139704
476.444950,-444.123565,8142.265362,-75077.358804
476.447523,1036.288319,-6069.688724,-74617.701505
476.450095,11547.212695,10658.965565,-73238.729609
476.452667,11251.130318,-4293.194464,-73238.729609
476.455240,11103.089130,-2072.576638,-75077.358804
476.457812,-9622.677246,1332.370696,-76915.987999
476.460385,-4737.318029,-5477.523971,-75537.016103
476.462957,-10214.842000,-7402.059420,-75690.235202
476.465530,-14508.036463,4589.276840,-75843.454302
476.468102,-5181.441594,2072.576638,-76762.768900
476.470675,-444.123565,6217.729913,-76456.330700
