#time,accel_x,accel_y,accel_z
881.000034,1036.288319,592.164754,-74311.263306
881.002463,740.205942,444.123565,-74464.482406
881.004893,444.123565,-296.082377,-74464.482406
881.007322,296.082377,592.164754,-73698.386908
881.009752,-148.041188,12879.583391,-73851.606007
881.012181,11991.336260,8586.388927,-71859.757712
881.014611,26795.455100,-12583.501014,-70787.224015
881.017040,21614.013506,-17172.777854,-74464.482406
881.019470,-1332.370696,-4737.318029,-77528.864398
881.021899,-14211.954086,3849.070898,-77375.645298
881.024329,-1628.453072,7698.141797,-76149.892501
881.026758,5921.647536,2368.659014,-74311.263306
881.029188,4737.318029,-3404.947333,-76303.111601
881.031617,-296.082377,-148.041188,-77069.207099
881.034047,-19097.313304,2220.617826,-77528.864398
881.036476,8142.265362,2516.700203,-73238.729609
881.038906,296.082377,3552.988522,-75383.797003
881.041335,1332.370696,-592.164754,-75537.016103
881.043765,14359.995275,-5773.606348,-75996.673402
881.046194,-3108.864956,4589.276840,-76609.549800
881.048624,5477.523971,4589.276840,-75690.235202
881.051053,1776.494261,5477.523971,-74464.482406
881.053483,3552.988522,444.123565,-72625.853210
881.055912,-7254.018232,2220.617826,-75996.673402
881.058342,888.247130,7846.182985,-77528.864398
881.060771,-17024.736666,13471.748144,-79214.274493
881.063201,3849.070898,5625.565159,-74311.263306
881.065630,8882.471304,-3552.988522,-72932.291410
881.068060,10807.006753,10658.965565,-71859.757712
881.070489,6365.771101,4737.318029,-73545.167808
881.072919,28868.031738,-7994.224174,-72166.195912
881.075348,21169.889941,-5625.565159,-73238.729609
881.077778,5033.400406,-10510.924376,-76609.549800
881.080112,-13027.624579,-2516.700203,-76762.768900
881.082447,-14952.160028,6661.853478,-76609.549800
881.084782,-7698.141797,13767.830521,-75077.358804
881.087116,9770.718434,10807.006753,-75996.673402
881.089451,10510.924376,6217.729913,-76149.892501
881.091786,-3404.947333,1184.329507,-77988.521696
881.094121,-12287.418637,-1480.411884,-78448.178995
881.096455,1480.411884,-1776.494261,-74464.482406
881.098790,2664.741391,4293.194464,-74924.139704
881.101125,296.082377,296.082377,-77069.207099
881.103460,-2516.700203,5033.400406,-78907.836294
881.105794,14952.160028,1480.411884,-75843.454302
881.108129,14508.036463,-1776.494261,-74004.825107
881.110464,12139.377449,6069.688724,-74617.701505
881.112798,148.041188,13619.789333,-75996.673402
881.115133,4885.359217,1332.370696,-75537.016103
881.117468,3701.029710,-5477.523971,-76609.549800
881.119803,-5625.565159,5477.523971,-74004.825107
881.122137,-9474.636058,-9030.512492,-75383.797003
881.124472,-13619.789333,-5033.400406,-75690.235202
881.126807,-2812.782580,3404.947333,-74464.482406
881.129141,11843.295072,888.247130,-73085.510509
881.131476,3256.906145,-8290.306550,-74158.044206
881.133811,4293.194464,-2812.782580,-75996.673402
881.136146,-3552.988522,-3108.864956,-76303.111601
881.138480,7254.018232,1036.288319,-76609.549800
881.140815,-16580.613101,1924.535449,-77375.645298
881.143150,-6661.853478,-2960.823768,-76456.330700
881.145484,-10807.006753,-740.205942,-77528.864398
881.147819,4441.235652,-1924.535449,-75690.235202
881.150154,-1036.288319,740.205942,-75690.235202
881.152489,-2368.659014,9770.718434,-76456.330700
881.154823,14952.160028,-4293.194464,-74004.825107
881.157158,10362.883188,-3404.947333,-73085.510509
881.159493,-888.247130,-15396.283594,-74464.482406
881.161827,-14508.036463,-8438.347739,-77069.207099
881.164162,-30940.608376,12287.418637,-78754.617194
881.166497,-11547.212695,3997.112087,-77375.645298
881.168832,2220.617826,296.082377,-75843.454302
881.171166,-11843.295072,7846.182985,-75383.797003
881.173469,-7846.182985,2812.782580,-75996.673402
881.175768,-14359.995275,18505.148550,-76456.330700
881.178068,-14359.995275,8882.471304,-75996.673402
881.180367,8438.347739,-888.247130,-75230.577904
881.182667,2516.700203,888.247130,-76149.892501
881.184966,-8290.306550,0.000000,-76456.330700
881.187266,-4589.276840,-4589.276840,-76609.549800
881.189565,3552.988522,-7254.018232,-75077.358804
881.191864,6365.771101,-10066.800811,-75690.235202
881.194164,-19393.395680,2220.617826,-77682.083497
881.196463,1036.288319,-592.164754,-76456.330700
881.198763,148.041188,-6365.771101,-75537.016103
881.201062,7550.100608,-14804.118840,-73698.386908
881.203361,-12139.377449,-592.164754,-76915.987999
881.205661,-10362.883188,3849.070898,-77375.645298
881.207960,0.000000,-5033.400406,-77222.426198
881.210260,4293.194464,14804.118840,-76609.549800
881.212559,21317.931130,12731.542202,-75077.358804
881.214859,8142.265362,7105.977043,-74311.263306
881.217158,12731.542202,-2220.617826,-73391.948708
881.219457,15396.283594,3701.029710,-76149.892501
881.221757,3256.906145,7402.059420,-77528.864398
881.224056,-2368.659014,9622.677246,-77835.302597
881.226356,13175.665768,740.205942,-75230.577904
881.228655,20281.642811,1184.329507,-73085.510509
881.230954,5773.606348,7698.141797,-72625.853210
881.233254,-1776.494261,6217.729913,-74464.482406
881.235553,3997.112087,2812.782580,-74464.482406
881.237853,10362.883188,-2516.700203,-72779.072310
881.240152,1924.535449,7402.059420,-73085.510509
881.242451,-5329.482782,3108.864956,-72779.072310
881.244751,15692.365970,-8290.306550,-70787.224015
881.247050,7846.182985,9030.512492,-71246.881314
881.249350,2516.700203,10214.842000,-72779.072310
881.251649,27239.578666,-5477.523971,-71400.100414
881.253949,18505.148550,-3997.112087,-71400.100414
881.256248,14359.995275,8438.347739,-70480.785816
881.258547,16580.613101,-2812.782580,-73238.729609
881.260847,15840.407159,-740.205942,-73851.606007
881.263146,888.247130,12139.377449,-76762.768900
881.265556,6365.771101,12139.377449,-77375.645298
881.267966,13027.624579,7402.059420,-74158.044206
881.270376,10658.965565,-1628.453072,-74311.263306
881.272785,-3256.906145,-1776.494261,-77682.083497
881.275195,-2960.823768,-148.041188,-77528.864398
881.277605,10214.842000,3552.988522,-76915.987999
881.280015,2664.741391,8586.388927,-76915.987999
881.282425,8290.306550,6661.853478,-77069.207099
881.284834,12287.418637,-148.041188,-76303.111601
881.287244,20725.766376,-2516.700203,-75077.358804
881.289654,6661.853478,7846.182985,-78141.740796
881.292064,-7254.018232,5181.441594,-77835.302597
881.294474,10362.883188,-592.164754,-75537.016103
881.296883,888.247130,1480.411884,-72932.291410
881.299293,-6069.688724,-9770.718434,-74464.482406
881.301703,-16876.695478,-2664.741391,-76149.892501
881.304113,7550.100608,-2812.782580,-75383.797003
881.306523,6809.894666,-444.123565,-75383.797003
881.308932,-8734.430116,888.247130,-76303.111601
881.311342,-3108.864956,2812.782580,-74617.701505
881.313752,-1480.411884,-2960.823768,-74924.139704
881.316162,7698.141797,-4737.318029,-74311.263306
881.318572,-13175.665768,592.164754,-75843.454302
881.320981,-12583.501014,-444.123565,-76149.892501
881.323391,-8734.430116,148.041188,-74770.920605
881.325801,888.247130,2072.576638,-72779.072310
881.328211,-3256.906145,3404.947333,-73851.606007
881.330621,1628.453072,-2664.741391,-75843.454302
881.333030,-5329.482782,148.041188,-75230.577904
881.335440,19689.478057,1628.453072,-74004.825107
881.337850,-4885.359217,-4589.276840,-75690.235202
881.340260,-20281.642811,14804.118840,-76762.768900
881.342670,-19393.395680,11251.130318,-78294.959896
881.345079,-8882.471304,20873.807564,-76303.111601
881.347489,20429.683999,296.082377,-73698.386908
881.349899,28868.031738,-17172.777854,-72625.853210
881.352309,1332.370696,-1776.494261,-75230.577904
881.354719,-13619.789333,1036.288319,-76762.768900
881.357128,148.041188,-888.247130,-75996.673402
881.359538,-4441.235652,5033.400406,-76609.549800
881.362025,-5181.441594,-1036.288319,-77528.864398
881.364511,148.041188,-8882.471304,-76609.549800
881.366997,5329.482782,-4885.359217,-74311.263306
881.369483,7402.059420,-3552.988522,-73545.167808
881.371969,14211.954086,-2072.576638,-74924.139704
881.374456,1036.288319,2368.659014,-76762.768900
881.376942,-3552.988522,296.082377,-77069.207099
881.379428,296.082377,-6809.894666,-74924.139704
881.381914,21021.848753,-9770.718434,-73238.729609
881.384400,-13471.748144,296.082377,-75383.797003
881.386887,-3701.029710,-1776.494261,-77375.645298
881.389373,1628.453072,11251.130318,-77682.083497
881.391859,17320.819043,5181.441594,-76149.892501
881.394345,-5033.400406,592.164754,-76762.768900
881.396832,-2812.782580,3256.906145,-75383.797003
881.399318,13175.665768,6217.729913,-74158.044206
881.401804,-6365.771101,4293.194464,-75230.577904
881.404290,1628.453072,888.247130,-77222.426198
881.406776,-9770.718434,8142.265362,-76762.768900
881.409263,6365.771101,2072.576638,-74311.263306
881.411749,1776.494261,3256.906145,-73698.386908
881.414235,3404.947333,5477.523971,-73545.167808
881.416721,-888.247130,7254.018232,-75383.797003
881.419207,7105.977043,3108.864956,-74770.920605
881.421694,1332.370696,5033.400406,-74464.482406
881.424180,1924.535449,12287.418637,-74924.139704
881.426666,-16580.613101,12879.583391,-77222.426198
881.429152,-1332.370696,19985.560434,-73698.386908
881.431639,-20281.642811,444.123565,-76762.768900
881.434125,-1480.411884,-1332.370696,-75230.577904
881.436611,14656.077652,-13619.789333,-73545.167808
881.439097,8290.306550,-15544.324782,-73545.167808
881.441583,2960.823768,-9474.636058,-76149.892501
881.444070,-19097.313304,6217.729913,-77988.521696
881.446556,-12435.459826,9326.594869,-77835.302597
881.449042,13323.706956,4441.235652,-73085.510509
881.451528,10362.883188,-5033.400406,-74924.139704
881.454014,-740.205942,-2220.617826,-78448.178995
881.456501,1332.370696,-1776.494261,-76762.768900
881.458987,2812.782580,4589.276840,-75077.358804
881.461523,17912.983796,3256.906145,-75537.016103
881.464060,16728.654289,-4441.235652,-75383.797003
881.466597,18653.189738,592.164754,-75996.673402
881.469133,-4293.194464,15840.407159,-77528.864398
881.471670,25018.960840,-1480.411884,-75537.016103
881.474206,888.247130,-2664.741391,-75383.797003
881.476743,-2812.782580,2812.782580,-76915.987999
881.479280,-20133.601622,-7254.018232,-77835.302597
881.481816,-10362.883188,-3404.947333,-76456.330700
881.484353,-3108.864956,-1924.535449,-76149.892501
881.486889,-11843.295072,7994.224174,-76762.768900
881.489426,-13323.706956,1036.288319,-75996.673402
881.491963,-2812.782580,-592.164754,-74770.920605
881.494499,9178.553681,-3108.864956,-73545.167808
881.497036,-3552.988522,4589.276840,-75077.358804
881.499572,-7550.100608,2072.576638,-75996.673402
881.502109,-6217.729913,-6957.935855,-75077.358804
881.504645,-1036.288319,-2960.823768,-72932.291410
881.507182,-4737.318029,1480.411884,-72779.072310
881.509719,-2368.659014,2220.617826,-74464.482406
881.512255,7402.059420,-3404.947333,-73851.606007
881.514792,9326.594869,-2812.782580,-74004.825107
881.517328,4441.235652,10510.924376,-74617.701505
881.519865,4441.235652,-2072.576638,-73698.386908
881.522402,-1184.329507,6513.812290,-75996.673402
881.524938,5181.441594,7105.977043,-75537.016103
881.527475,11991.336260,-888.247130,-73085.510509
881.530011,19837.519246,-17764.942608,-73851.606007
881.532548,10066.800811,-14952.160028,-72472.634111
881.535085,-3108.864956,-4293.194464,-75690.235202
881.537621,-2516.700203,3849.070898,-76915.987999
881.540158,-888.247130,2664.741391,-75537.016103
881.542694,-9326.594869,2072.576638,-76762.768900
881.545231,-2664.741391,-4885.359217,-76303.111601
881.547767,-3997.112087,-4885.359217,-74924.139704
881.550304,3256.906145,-5329.482782,-73391.948708
881.552841,13471.748144,0.000000,-74311.263306
881.555377,8734.430116,1036.288319,-75996.673402
881.557914,-1332.370696,-1332.370696,-76762.768900
881.560450,-148.041188,-6661.853478,-75690.235202
881.563022,12879.583391,-6365.771101,-73851.606007
881.565593,-12287.418637,4293.194464,-75383.797003
881.568165,-7550.100608,-4737.318029,-76762.768900
881.570736,-5625.565159,8290.306550,-77528.864398
881.573308,6217.729913,-5773.606348,-77069.207099
881.575880,1776.494261,2072.576638,-74770.920605
881.578451,3404.947333,740.205942,-73238.729609
881.581023,22354.219448,1332.370696,-72625.853210
881.583594,-444.123565,-592.164754,-75230.577904
881.586166,3108.864956,7402.059420,-76915.987999
881.588737,-5625.565159,6513.812290,-77528.864398
881.591309,21910.095883,148.041188,-73545.167808
881.593880,10510.924376,2072.576638,-72472.634111
881.596452,4145.153275,5625.565159,-73698.386908
881.599023,3701.029710,2368.659014,-75537.016103
881.601595,12731.542202,-3256.906145,-74004.825107
881.604166,3256.906145,2072.576638,-75077.358804
881.606738,-1628.453072,-296.082377,-77222.426198
881.609309,1036.288319,-7698.141797,-75230.577904
881.611881,-3404.947333,-2516.700203,-75690.235202
881.614452,-18357.107362,-7994.224174,-74464.482406
881.617024,-7698.141797,-10362.883188,-77835.302597
881.619595,-26943.496289,12583.501014,-78601.398095
881.622167,-19393.395680,13915.871710,-78907.836294
881.624738,-3552.988522,9326.594869,-74770.920605
881.627310,7698.141797,-3701.029710,-73391.948708
881.629881,-2220.617826,-2960.823768,-74311.263306
881.632453,-6069.688724,-592.164754,-75996.673402
881.635024,2516.700203,5181.441594,-72932.291410
881.637596,6513.812290,3997.112087,-74464.482406
881.640167,-1924.535449,9474.636058,-76456.330700
881.642739,8142.265362,2664.741391,-75537.016103
881.645310,18801.230927,-2960.823768,-73698.386908
881.647882,16580.613101,1776.494261,-73545.167808
881.650453,-3108.864956,17616.901420,-76609.549800
881.653025,5329.482782,2220.617826,-75843.454302
881.655596,10955.047942,-4293.194464,-74924.139704
881.658168,10362.883188,3404.947333,-74464.482406
881.660740,-5477.523971,-1924.535449,-75230.577904
881.663311,-7105.977043,-7254.018232,-75843.454302
881.665904,3849.070898,-6809.894666,-75996.673402
881.668497,148.041188,444.123565,-76609.549800
881.671091,-11695.253884,-1480.411884,-77528.864398
881.673684,5033.400406,-5329.482782,-75230.577904
881.676277,9770.718434,-2664.741391,-75383.797003
881.678870,-5181.441594,6217.729913,-74924.139704
881.681463,-7402.059420,6365.771101,-75996.673402
881.684057,-2664.741391,-6513.812290,-76456.330700
881.686650,-2220.617826,-5033.400406,-74924.139704
881.689243,-5329.482782,-2812.782580,-75537.016103
881.691836,-2072.576638,444.123565,-74464.482406
881.694429,-1332.370696,2368.659014,-75383.797003
881.697023,0.000000,-6513.812290,-74770.920605
881.699616,10510.924376,-8438.347739,-73391.948708
881.702209,11547.212695,-26499.372724,-75077.358804
881.704802,-31384.731941,-9178.553681,-79061.055394
881.707395,11251.130318,-25611.125593,-74617.701505
881.709989,2368.659014,-9030.512492,-75690.235202
881.712582,-6069.688724,-5921.647536,-76762.768900
881.715175,-8734.430116,2960.823768,-74924.139704
881.717768,3997.112087,6513.812290,-73085.510509
881.720361,-4293.194464,1480.411884,-74158.044206
881.722954,-10807.006753,-4885.359217,-76762.768900
881.725548,-3997.112087,-4441.235652,-75996.673402
881.728141,3849.070898,-7994.224174,-76303.111601
881.730734,-18357.107362,2960.823768,-75843.454302
881.733327,2960.823768,3701.029710,-75383.797003
881.735920,4441.235652,2812.782580,-74770.920605
881.738514,10807.006753,3256.906145,-74770.920605
881.741107,-14508.036463,2960.823768,-76762.768900
881.743700,10658.965565,3701.029710,-75077.358804
881.746293,-11547.212695,1776.494261,-75383.797003
881.748886,3701.029710,-296.082377,-73698.386908
881.751480,13323.706956,-2516.700203,-75077.358804
881.754073,-4145.153275,2072.576638,-76915.987999
881.756666,2220.617826,-8290.306550,-75230.577904
881.759259,-4441.235652,6661.853478,-76303.111601
881.761852,12583.501014,5773.606348,-74617.701505
881.764446,-6661.853478,888.247130,-76149.892501
881.767039,-1036.288319,6809.894666,-76762.768900
881.769646,-9622.677246,9178.553681,-79367.493593
881.772254,-1628.453072,9030.512492,-77222.426198
881.774862,6217.729913,-2664.741391,-74924.139704
881.777469,12139.377449,1184.329507,-73851.606007
881.780077,1480.411884,1184.329507,-76609.549800
881.782685,3849.070898,-1036.288319,-76456.330700
881.785292,5181.441594,0.000000,-75690.235202
881.787900,6513.812290,-10658.965565,-75843.454302
881.790508,-9178.553681,1184.329507,-78294.959896
881.793115,-26943.496289,9326.594869,-79214.274493
881.795723,-9326.594869,16136.489536,-76149.892501
881.798331,8142.265362,9178.553681,-74004.825107
881.800938,21614.013506,7550.100608,-71400.100414
881.803546,10510.924376,7402.059420,-73238.729609
881.806154,7994.224174,-5329.482782,-75537.016103
881.808761,-2220.617826,-1480.411884,-74924.139704
881.811369,6661.853478,-1480.411884,-73851.606007
881.813977,8586.388927,-740.205942,-73545.167808
881.816584,-2664.741391,3256.906145,-75996.673402
881.819192,3108.864956,888.247130,-76149.892501
881.821800,5477.523971,0.000000,-75537.016103
881.824407,4145.153275,4145.153275,-75383.797003
881.827015,15840.407159,1184.329507,-73238.729609
881.829623,7402.059420,10807.006753,-74617.701505
881.832230,-1776.494261,3849.070898,-75690.235202
881.834838,1776.494261,-2664.741391,-76149.892501
881.837445,-9474.636058,-4145.153275,-76303.111601
881.840053,-16580.613101,-9918.759623,-76149.892501
881.842661,-16876.695478,2072.576638,-76609.549800
881.845268,-8290.306550,9326.594869,-75843.454302
881.847876,4293.194464,-1036.288319,-74770.920605
881.850484,5181.441594,-9770.718434,-74617.701505
881.853102,9770.718434,-1332.370696,-74924.139704
881.855721,3552.988522,-3108.864956,-75230.577904
881.858339,1184.329507,2812.782580,-76303.111601
881.860958,-6365.771101,4737.318029,-75996.673402
881.863576,-1480.411884,-3701.029710,-76303.111601
881.866195,-2220.617826,-6217.729913,-75077.358804
881.868813,2812.782580,-5181.441594,-75077.358804
881.871432,-4737.318029,2220.617826,-75843.454302
881.874050,148.041188,1184.329507,-75537.016103
881.876669,6069.688724,2368.659014,-73391.948708
881.879287,29312.155303,-21614.013506,-70634.004916
881.881906,22206.178260,-21910.095883,-73851.606007
881.884524,-20725.766376,10362.883188,-80593.246390
881.887143,-37898.544230,27831.743419,-81512.560987
881.889761,444.123565,14804.118840,-75690.235202
881.892380,25907.207970,-15396.283594,-70634.004916
881.894998,-3849.070898,-12583.501014,-74464.482406
881.897617,-18505.148550,-3108.864956,-75077.358804
881.900235,-8882.471304,-5773.606348,-77528.864398
881.902854,-6513.812290,4885.359217,-76609.549800
881.905472,4737.318029,2960.823768,-74311.263306
881.908091,1924.535449,-1480.411884,-74464.482406
881.910709,5625.565159,-3108.864956,-74158.044206
881.913328,-2220.617826,-5625.565159,-74924.139704
881.915946,9474.636058,-13175.665768,-74311.263306
881.918565,-12879.583391,3701.029710,-77988.521696
881.921183,-1184.329507,7550.100608,-76762.768900
881.923802,-5033.400406,-6069.688724,-74770.920605
881.926420,1924.535449,9622.677246,-73851.606007
881.929039,13323.706956,5921.647536,-74617.701505
881.931657,-1036.288319,10362.883188,-75537.016103
881.934276,3849.070898,-592.164754,-75843.454302
881.936894,22502.260637,2220.617826,-74158.044206
881.939513,8586.388927,3108.864956,-74004.825107
881.942131,-9178.553681,4589.276840,-75690.235202
881.944750,3849.070898,-3701.029710,-75690.235202
881.947368,-5329.482782,3256.906145,-76303.111601
881.949987,0.000000,6661.853478,-76456.330700
881.952605,-2072.576638,148.041188,-75843.454302
881.955224,12879.583391,740.205942,-74770.920605
881.957845,2812.782580,3256.906145,-75843.454302
881.960467,888.247130,7402.059420,-75383.797003
881.963088,1480.411884,7402.059420,-75077.358804
881.965710,19097.313304,-21910.095883,-74311.263306
881.968331,-3404.947333,-296.082377,-78294.959896
881.970952,-54627.198520,30496.484810,-83197.971083
881.973574,-2812.782580,19245.354492,-76609.549800
881.976195,50185.962868,-15248.242405,-65424.555529
881.978817,21317.931130,-7254.018232,-72319.415011
881.981438,-18061.024985,-148.041188,-79980.369991
881.984060,0.000000,4589.276840,-75843.454302
881.986681,15100.201217,10807.006753,-72012.976812
881.989303,3552.988522,7105.977043,-76149.892501
881.991924,-8290.306550,7105.977043,-78294.959896
881.994546,-6513.812290,6069.688724,-77528.864398
881.997167,8734.430116,444.123565,-74924.139704
881.999789,15100.201217,3701.029710,-75383.797003
882.002410,-6217.729913,14508.036463,-76303.111601
882.005031,24722.878463,-4441.235652,-73698.386908
882.007653,18209.066173,-2664.741391,-72625.853210
882.010274,14359.995275,740.205942,-73391.948708
882.012896,-16876.695478,-1628.453072,-76303.111601
882.015517,-21021.848753,-10066.800811,-77069.207099
882.018139,-7550.100608,-2960.823768,-75996.673402
882.020760,-10955.047942,7846.182985,-76149.892501
882.023382,-10955.047942,0.000000,-75996.673402
882.026003,4293.194464,-5625.565159,-74158.044206
882.028625,12731.542202,-1332.370696,-73085.510509
882.031246,3108.864956,2812.782580,-74158.044206
882.033868,10362.883188,-2812.782580,-74617.701505
882.036489,-9030.512492,-8438.347739,-76915.987999
882.039110,-2960.823768,-1628.453072,-76609.549800
882.041732,-16136.489536,-1332.370696,-75230.577904
882.044353,-3108.864956,740.205942,-75843.454302
882.046975,-3404.947333,1480.411884,-75690.235202
882.049596,4441.235652,9326.594869,-75996.673402
882.052218,1480.411884,1480.411884,-74617.701505
882.054839,15988.448347,-5625.565159,-72932.291410
882.057461,13323.706956,-20281.642811,-73698.386908
882.060082,21317.931130,-16136.489536,-74311.263306
882.062705,10955.047942,-14211.954086,-75383.797003
882.065328,-2960.823768,-10066.800811,-77375.645298
882.067951,-3997.112087,-148.041188,-74770.920605
882.070574,-592.164754,-296.082377,-73545.167808
882.073197,-9326.594869,-2072.576638,-75383.797003
882.075820,-6217.729913,-2812.782580,-78294.959896
882.078443,-18505.148550,-2960.823768,-79673.931792
882.081066,8586.388927,-296.082377,-76149.892501
882.083689,-592.164754,-296.082377,-74004.825107
882.086311,3404.947333,444.123565,-72625.853210
882.088934,-4145.153275,1628.453072,-73698.386908
882.091557,17764.942608,1184.329507,-74464.482406
882.094180,-4589.276840,-1776.494261,-76303.111601
882.096803,444.123565,-3997.112087,-75383.797003
882.099426,1776.494261,5329.482782,-75077.358804
882.102049,3552.988522,10066.800811,-73851.606007
882.104672,6365.771101,-1628.453072,-73545.167808
882.107295,-5477.523971,9770.718434,-74924.139704
882.109918,16432.571912,3552.988522,-75077.358804
882.112541,4885.359217,2516.700203,-74464.482406
882.115164,1184.329507,3256.906145,-74617.701505
882.117787,5921.647536,-5181.441594,-73698.386908
882.120410,3849.070898,-2960.823768,-75383.797003
882.123033,3256.906145,5329.482782,-75077.358804
882.125655,3701.029710,5181.441594,-75383.797003
882.128278,4441.235652,4885.359217,-75996.673402
882.130901,8438.347739,-1776.494261,-75537.016103
882.133524,-296.082377,12287.418637,-74617.701505
882.136147,-1036.288319,11103.089130,-75230.577904
882.138770,19689.478057,3108.864956,-73238.729609
882.141393,20577.725188,9326.594869,-73238.729609
882.144016,1776.494261,10955.047942,-76915.987999
882.146639,5033.400406,6069.688724,-74924.139704
882.149262,18061.024985,3108.864956,-72012.976812
882.151885,6661.853478,7994.224174,-72166.195912
882.154508,2664.741391,4737.318029,-75383.797003
882.157131,-3701.029710,-2368.659014,-78294.959896
882.159754,3256.906145,-7994.224174,-75843.454302
882.162376,9770.718434,0.000000,-74464.482406
882.164999,-3108.864956,444.123565,-75690.235202
882.167553,-3256.906145,5181.441594,-76456.330700
882.170107,21169.889941,6513.812290,-74924.139704
882.172660,-592.164754,14063.912898,-77222.426198
882.175214,13323.706956,-1480.411884,-75077.358804
882.177767,12731.542202,-1628.453072,-75077.358804
882.180321,18801.230927,1480.411884,-72932.291410
882.182874,-4293.194464,-7550.100608,-73698.386908
882.185428,-7846.182985,-6069.688724,-75077.358804
882.187981,-5329.482782,-5477.523971,-76149.892501
882.190535,-7105.977043,-7254.018232,-76915.987999
882.193088,-12139.377449,-1036.288319,-76149.892501
882.195642,3108.864956,-1184.329507,-74617.701505
882.198195,9178.553681,2368.659014,-74311.263306
882.200749,2664.741391,4293.194464,-73698.386908
882.203302,18949.272115,-4293.194464,-73545.167808
882.205856,-5329.482782,-4441.235652,-75843.454302
882.208409,-3997.112087,-888.247130,-75996.673402
882.210963,-13767.830521,-1628.453072,-75843.454302
882.213517,1036.288319,-1480.411884,-74770.920605
882.216070,5477.523971,-11103.089130,-75077.358804
882.218624,1628.453072,-7402.059420,-76149.892501
882.221177,-17320.819043,6217.729913,-76762.768900
882.223731,-17764.942608,16876.695478,-76303.111601
882.226284,12583.501014,-4737.318029,-72932.291410
882.228838,26055.249158,-21614.013506,-72932.291410
882.231391,4145.153275,-10658.965565,-76609.549800
882.233945,-21465.972318,3108.864956,-78141.740796
882.236498,7105.977043,444.123565,-73698.386908
882.239052,-4293.194464,5329.482782,-72625.853210
882.241605,-2220.617826,-8586.388927,-75230.577904
882.244159,-22354.219448,-6809.894666,-80133.589091
882.246712,6365.771101,-1628.453072,-77682.083497
882.249266,2368.659014,-9622.677246,-76915.987999
882.251819,2368.659014,2368.659014,-74158.044206
882.254373,-6957.935855,5477.523971,-74924.139704
882.256926,19689.478057,6365.771101,-75383.797003
882.259480,-4293.194464,-2220.617826,-76915.987999
882.262033,1776.494261,-2812.782580,-76609.549800
882.264587,7698.141797,1036.288319,-76456.330700
882.267140,-1776.494261,1480.411884,-75230.577904
882.269710,592.164754,-6809.894666,-72779.072310
882.272279,-3552.988522,6217.729913,-74924.139704
882.274849,16728.654289,4885.359217,-75537.016103
882.277419,-2220.617826,3404.947333,-76609.549800
882.279988,6809.894666,6069.688724,-74770.920605
882.282558,7846.182985,740.205942,-72932.291410
882.285127,17320.819043,-888.247130,-71706.538613
882.287697,-4737.318029,2220.617826,-74464.482406
882.290266,1924.535449,3108.864956,-75843.454302
882.292836,2072.576638,1184.329507,-76456.330700
882.295405,3404.947333,11547.212695,-75996.673402
882.297975,-8438.347739,8438.347739,-76303.111601
882.300545,-16876.695478,21169.889941,-77069.207099
882.303114,5033.400406,13915.871710,-73851.606007
882.305684,29164.114115,-3701.029710,-70327.566716
882.308253,35974.008781,-13027.624579,-70634.004916
882.310823,28719.990550,-4441.235652,-71859.757712
882.313392,5181.441594,-5625.565159,-74464.482406
882.315962,-1480.411884,2516.700203,-75537.016103
882.318531,2960.823768,6365.771101,-73851.606007
882.321101,9918.759623,0.000000,-74004.825107
882.323671,12287.418637,-4441.235652,-76303.111601
882.326240,-2516.700203,-1480.411884,-77682.083497
882.328810,-6809.894666,1184.329507,-76915.987999
882.331379,20429.683999,3552.988522,-73851.606007
882.333949,5773.606348,15100.201217,-75690.235202
882.336518,18061.024985,-3701.029710,-74770.920605
882.339088,15692.365970,-5625.565159,-75383.797003
882.341657,18801.230927,3701.029710,-73698.386908
882.344227,-4293.194464,-1480.411884,-74464.482406
882.346797,-15100.201217,-4293.194464,-75537.016103
882.349366,-12139.377449,-4885.359217,-77069.207099
882.351936,-6809.894666,0.000000,-76915.987999
882.354505,-14508.036463,888.247130,-77375.645298
882.357075,5921.647536,-2960.823768,-75383.797003
882.359644,8586.388927,-1184.329507,-73698.386908
882.362214,5921.647536,-1628.453072,-73238.729609
882.364784,10066.800811,-3701.029710,-74004.825107
882.367353,-6957.935855,-3256.906145,-76609.549800
882.369923,-9030.512492,-4145.153275,-76456.330700
882.372504,-10807.006753,-5329.482782,-75690.235202
882.375086,-1628.453072,-8882.471304,-75230.577904
882.377668,8882.471304,-5181.441594,-74617.701505
882.380249,9326.594869,-15100.201217,-73851.606007
882.382831,-8438.347739,-15544.324782,-77069.207099
882.385413,-13767.830521,2516.700203,-78294.959896
882.387994,-28423.908173,15840.407159,-79214.274493
882.390576,-12435.459826,10510.924376,-78448.178995
882.393158,-444.123565,2368.659014,-75996.673402
882.395739,-1480.411884,-2368.659014,-74004.825107
882.398321,-1332.370696,-6957.935855,-73238.729609
882.400903,2368.659014,-8438.347739,-73085.510509
882.403484,-13915.871710,-7698.141797,-77222.426198
882.406066,-7402.059420,1036.288319,-78141.740796
882.408648,-8438.347739,1776.494261,-77682.083497
882.411229,3849.070898,-888.247130,-73391.948708
882.413811,3701.029710,-7105.977043,-71400.100414
882.416393,11547.212695,-1776.494261,-72472.634111
882.418974,-11399.171507,1036.288319,-76609.549800
882.421556,2960.823768,-11843.295072,-76762.768900
882.424138,1776.494261,10510.924376,-77835.302597
882.426719,9474.636058,12139.377449,-75843.454302
882.429301,-2368.659014,6809.894666,-74158.044206
882.431883,1184.329507,2220.617826,-72779.072310
882.434464,19689.478057,4145.153275,-75077.358804
882.437046,444.123565,1628.453072,-76915.987999
882.439628,3256.906145,444.123565,-77222.426198
882.442209,4145.153275,-8734.430116,-76609.549800
882.444791,-4589.276840,2220.617826,-75843.454302
882.447373,-10658.965565,5773.606348,-75537.016103
882.449954,2812.782580,3849.070898,-75230.577904
882.452536,10955.047942,444.123565,-75996.673402
882.455118,6809.894666,10955.047942,-77222.426198
882.457699,-6217.729913,10658.965565,-77375.645298
882.460281,-17764.942608,21762.054695,-76762.768900
882.462863,9770.718434,16728.654289,-73698.386908
882.465444,-14359.995275,4737.318029,-77528.864398
882.468026,-4589.276840,11695.253884,-76303.111601
882.470607,444.123565,592.164754,-76303.111601
882.473189,13619.789333,-740.205942,-71859.757712
882.475778,11547.212695,5181.441594,-72625.853210
882.478367,1332.370696,1036.288319,-72932.291410
882.480956,-4737.318029,9474.636058,-76762.768900
882.483545,-148.041188,12583.501014,-76456.330700
882.486133,5625.565159,8142.265362,-74464.482406
882.488722,15248.242405,3404.947333,-73238.729609
882.491311,11991.336260,3256.906145,-73698.386908
882.493900,23242.466579,444.123565,-72932.291410
882.496489,3552.988522,-1332.370696,-74617.701505
882.499078,14804.118840,2812.782580,-76609.549800
882.501666,-9770.718434,-4441.235652,-76303.111601
882.504255,-13471.748144,-8142.265362,-75077.358804
882.506844,-14804.118840,-592.164754,-75690.235202
882.509433,-14063.912898,11251.130318,-75843.454302
882.512022,-4293.194464,-6661.853478,-76303.111601
882.514611,6809.894666,-12287.418637,-75230.577904
882.517199,9178.553681,-3256.906145,-75383.797003
882.519788,4589.276840,2812.782580,-75383.797003
882.522377,-592.164754,5477.523971,-75383.797003
882.524966,11251.130318,-296.082377,-74311.263306
882.527555,-2368.659014,-2960.823768,-76303.111601
882.530144,-8438.347739,-444.123565,-76915.987999
882.532732,-6217.729913,-4589.276840,-77375.645298
882.535321,-148.041188,-10510.924376,-77069.207099
882.537910,4589.276840,-11991.336260,-77528.864398
882.540499,-19541.436869,-296.082377,-78294.959896
882.543088,-17912.983796,9770.718434,-78141.740796
882.545677,-19245.354492,13915.871710,-77375.645298
882.548266,-7550.100608,7846.182985,-77682.083497
882.550854,1036.288319,-5477.523971,-76915.987999
882.553443,2368.659014,-9770.718434,-74158.044206
882.556032,-4737.318029,-5033.400406,-74617.701505
882.558621,-7846.182985,-3997.112087,-73545.167808
882.561210,9474.636058,-11399.171507,-73545.167808
882.563799,1332.370696,-2960.823768,-76762.768900
882.566387,-7402.059420,740.205942,-78601.398095
882.568976,-4737.318029,888.247130,-75843.454302
882.571565,-5329.482782,1184.329507,-72932.291410
882.574154,17172.777854,3404.947333,-71093.662214
882.576743,-10214.842000,-1332.370696,-74770.920605
882.579337,-2812.782580,-4441.235652,-76915.987999
882.581931,13323.706956,1036.288319,-76762.768900
882.584525,2516.700203,148.041188,-76609.549800
882.587120,-1332.370696,-1924.535449,-73391.948708
882.589714,-11547.212695,8734.430116,-74004.825107
882.592308,7402.059420,9622.677246,-75077.358804
882.594902,-2960.823768,1036.288319,-77222.426198
882.597497,8586.388927,5625.565159,-76456.330700
882.600091,12879.583391,-4737.318029,-75077.358804
882.602685,5921.647536,-2812.782580,-74464.482406
882.605279,-12583.501014,4589.276840,-75077.358804
882.607874,2368.659014,2516.700203,-74770.920605
882.610468,12731.542202,-6069.688724,-76456.330700
882.613062,7698.141797,9622.677246,-76609.549800
882.615656,-148.041188,7254.018232,-74924.139704
882.618251,20725.766376,-3849.070898,-72319.415011
882.620845,10955.047942,10807.006753,-72166.195912
882.623439,25315.043216,-2960.823768,-72012.976812
882.626033,14804.118840,2812.782580,-74617.701505
882.628628,3552.988522,-444.123565,-78141.740796
882.631222,-1036.288319,6957.935855,-75690.235202
882.633816,6069.688724,1924.535449,-72779.072310
882.636410,2960.823768,5329.482782,-74311.263306
882.639005,-8438.347739,4589.276840,-77682.083497
882.641599,-7698.141797,-148.041188,-77835.302597
882.644193,13767.830521,3108.864956,-75383.797003
882.646787,8142.265362,4737.318029,-75996.673402
882.649381,22946.384202,-1332.370696,-74158.044206
882.651976,-444.123565,-2812.782580,-75230.577904
882.654570,21021.848753,-1184.329507,-75537.016103
882.657164,-5921.647536,-5477.523971,-77222.426198
882.659758,-20429.683999,-6957.935855,-77528.864398
882.662353,-16728.654289,-1332.370696,-77222.426198
882.664947,-17320.819043,11399.171507,-76149.892501
882.667541,-6365.771101,-4885.359217,-74770.920605
882.670135,4441.235652,-10362.883188,-74770.920605
882.672730,12139.377449,-5033.400406,-75077.358804
882.675324,7698.141797,2072.576638,-74770.920605
882.677918,4293.194464,4885.359217,-74158.044206
882.680512,16432.571912,-3404.947333,-72779.072310
882.683110,-4441.235652,-592.164754,-74924.139704
882.685709,-7402.059420,1332.370696,-74924.139704
882.688307,-7402.059420,3552.988522,-76149.892501
882.690905,2812.782580,8882.471304,-76915.987999
882.693503,11843.295072,0.000000,-72779.072310
882.696101,20577.725188,-18357.107362,-70174.347617
882.698699,24278.754898,-29164.114115,-71246.881314
882.701297,-2516.700203,-12583.501014,-76762.768900
882.703895,-22502.260637,2812.782580,-80133.589091
882.706493,-9030.512492,7994.224174,-79061.055394
882.709091,-2220.617826,5477.523971,-75537.016103
882.711689,1184.329507,-9474.636058,-73085.510509
882.714287,-13915.871710,-9474.636058,-74311.263306
882.716885,-4885.359217,-2812.782580,-75077.358804
882.719483,444.123565,-9178.553681,-77528.864398
882.722081,4589.276840,1480.411884,-76915.987999
882.724679,4293.194464,1036.288319,-74464.482406
882.727278,7254.018232,4885.359217,-73085.510509
882.729876,-5921.647536,-592.164754,-73391.948708
882.732474,1036.288319,-8734.430116,-74004.825107
882.735072,-740.205942,9030.512492,-77835.302597
882.737670,5921.647536,11103.089130,-78601.398095
882.740268,6661.853478,3849.070898,-75996.673402
882.742866,7402.059420,2072.576638,-73085.510509
882.745464,13767.830521,7254.018232,-73238.729609
882.748062,-5625.565159,5477.523971,-75077.358804
882.750660,7402.059420,592.164754,-76456.330700
882.753258,8882.471304,-2516.700203,-78141.740796
882.755856,-8438.347739,8142.265362,-77375.645298
882.758454,-2368.659014,4885.359217,-74770.920605
882.761052,10362.883188,1332.370696,-72012.976812
882.763650,10658.965565,6513.812290,-73085.510509
882.766249,-2960.823768,9918.759623,-77682.083497
882.768847,-11399.171507,15692.365970,-78601.398095
882.771445,2812.782580,5329.482782,-75690.235202
882.774043,28423.908173,-15692.365970,-70174.347617
882.776641,14359.995275,-12583.501014,-69101.813920
882.779239,16136.489536,-2960.823768,-73085.510509
882.781837,-9770.718434,9030.512492,-79980.369991
882.784435,-4145.153275,15396.283594,-76915.987999
882.787034,11251.130318,17468.860231,-73085.510509
882.789633,20577.725188,-148.041188,-72319.415011
882.792232,5181.441594,-5921.647536,-75690.235202
882.794831,-9474.636058,2812.782580,-78141.740796
882.797430,2368.659014,10955.047942,-76915.987999
882.800029,13915.871710,19393.395680,-75690.235202
882.802628,17616.901420,5773.606348,-73851.606007
882.805227,17468.860231,-6069.688724,-73851.606007
882.807826,14508.036463,2072.576638,-74158.044206
882.810425,740.205942,-11251.130318,-74158.044206
882.813024,-14359.995275,-6809.894666,-75996.673402
882.815623,-14359.995275,-2368.659014,-77069.207099
882.818222,-13767.830521,2220.617826,-76762.768900
882.820820,-15100.201217,2220.617826,-75843.454302
882.823419,1776.494261,-5181.441594,-75690.235202
882.826018,11399.171507,-1332.370696,-74004.825107
882.828617,7698.141797,-3997.112087,-75077.358804
882.831216,-5033.400406,3404.947333,-76609.549800
882.833815,-2960.823768,3701.029710,-76456.330700
882.836414,-4441.235652,-5329.482782,-75996.673402
882.839013,-9030.512492,-3849.070898,-74770.920605
882.841612,-1332.370696,12583.501014,-75230.577904
882.844211,7105.977043,3701.029710,-75077.358804
882.846810,14211.954086,-3256.906145,-72012.976812
882.849409,4885.359217,3849.070898,-73085.510509
882.852008,-888.247130,7254.018232,-74158.044206
882.854607,-3552.988522,3256.906145,-75537.016103
882.857206,3849.070898,-5329.482782,-75690.235202
882.859805,-4737.318029,-5625.565159,-77069.207099
882.862404,-2072.576638,-7402.059420,-75690.235202
882.865003,3849.070898,-11843.295072,-74464.482406
882.867602,-3256.906145,592.164754,-74464.482406
882.870201,148.041188,-2960.823768,-76303.111601
882.872800,-5329.482782,1332.370696,-78294.959896
882.875399,3849.070898,-148.041188,-77222.426198
882.877998,21614.013506,-2072.576638,-73698.386908
882.880597,-7550.100608,-592.164754,-74617.701505
882.883196,-7846.182985,-4441.235652,-75996.673402
882.885795,148.041188,7994.224174,-77222.426198
882.888394,7550.100608,6365.771101,-76915.987999
882.890993,2812.782580,5773.606348,-76915.987999
882.893592,-740.205942,3997.112087,-75537.016103
882.896191,17172.777854,5329.482782,-72472.634111
882.898791,6365.771101,4441.235652,-72319.415011
882.901390,1628.453072,740.205942,-74617.701505
882.903989,5329.482782,1036.288319,-77682.083497
882.906588,-13027.624579,10066.800811,-78601.398095
882.909188,6217.729913,3849.070898,-74311.263306
882.911787,14211.954086,2960.823768,-71553.319513
882.914386,10362.883188,1924.535449,-71706.538613
882.916985,2368.659014,11399.171507,-74158.044206
882.919585,22058.137072,-6365.771101,-72472.634111
882.922184,19393.395680,-9770.718434,-72932.291410
882.924783,11547.212695,592.164754,-73851.606007
882.927382,-5477.523971,444.123565,-76456.330700
882.929982,0.000000,9030.512492,-75383.797003
882.932581,4145.153275,5773.606348,-74464.482406
882.935180,5033.400406,3404.947333,-73698.386908
882.937780,16728.654289,-1924.535449,-75077.358804
882.940379,888.247130,-888.247130,-75843.454302
882.942978,-7254.018232,1480.411884,-77375.645298
882.945577,4293.194464,7550.100608,-74924.139704
882.948177,13619.789333,10955.047942,-74617.701505
882.950776,21614.013506,-2664.741391,-75077.358804
882.953375,6365.771101,-2812.782580,-76915.987999
882.955974,18061.024985,444.123565,-75843.454302
882.958574,-592.164754,888.247130,-76149.892501
882.961173,-18505.148550,-740.205942,-76149.892501
882.963772,-6069.688724,-592.164754,-75690.235202
882.966371,-25167.002028,9622.677246,-77375.645298
882.968971,-14508.036463,-3849.070898,-77835.302597
882.971570,-1924.535449,-8142.265362,-76609.549800
882.974169,11547.212695,-1924.535449,-74617.701505
882.976768,2960.823768,3108.864956,-74770.920605
882.979368,3256.906145,5625.565159,-73851.606007
882.981967,24574.837274,-7254.018232,-73545.167808
882.984566,3552.988522,-1332.370696,-74464.482406
882.987165,-10362.883188,-1184.329507,-76149.892501
882.989765,-15100.201217,2072.576638,-77528.864398
882.992364,-3108.864956,2664.741391,-75077.358804
882.994911,16876.695478,8882.471304,-75383.797003
882.997457,-444.123565,5921.647536,-72319.415011
883.000004,20873.807564,-12731.542202,-70940.443115
883.002550,8586.388927,-10955.047942,-72472.634111
883.005097,-8438.347739,-5477.523971,-77528.864398
883.007644,-8586.388927,5033.400406,-77835.302597
883.010190,-18801.230927,10214.842000,-77375.645298
883.012737,-148.041188,2960.823768,-73391.948708
883.015284,1332.370696,-2516.700203,-73545.167808
883.017830,-1924.535449,-5181.441594,-74617.701505
883.020377,-8142.265362,-444.123565,-77835.302597
883.022923,-1776.494261,-888.247130,-77069.207099
883.025470,22502.260637,888.247130,-73698.386908
883.028017,-3701.029710,-592.164754,-73698.386908
883.030563,-2072.576638,3256.906145,-74311.263306
883.033110,6809.894666,7550.100608,-76303.111601
883.035656,888.247130,-2812.782580,-78294.959896
883.038203,10362.883188,-5773.606348,-76149.892501
883.040750,592.164754,3256.906145,-77069.207099
883.043296,8142.265362,7402.059420,-74770.920605
883.045843,-2368.659014,444.123565,-73698.386908
883.048390,5181.441594,0.000000,-74158.044206
883.050936,4885.359217,3849.070898,-77835.302597
883.053483,-13619.789333,12731.542202,-78907.836294
883.056029,9178.553681,2368.659014,-76456.330700
883.058576,11399.171507,-3997.112087,-73851.606007
883.061123,19689.478057,10066.800811,-71706.538613
883.063669,10362.883188,296.082377,-71859.757712
883.066216,26351.331535,-8290.306550,-74158.044206
883.068762,-8290.306550,21910.095883,-76303.111601
883.071309,-5477.523971,16136.489536,-77682.083497
883.073856,11547.212695,18949.272115,-72472.634111
883.076402,23094.425390,1480.411884,-70940.443115
883.078949,6069.688724,-10214.842000,-74464.482406
883.081495,-2960.823768,-7402.059420,-77069.207099
883.084042,-3701.029710,5033.400406,-76456.330700
883.086589,-6661.853478,8142.265362,-76149.892501
883.089135,1480.411884,13027.624579,-74924.139704
883.091682,13915.871710,9474.636058,-72932.291410
883.094229,23538.548956,-2960.823768,-73545.167808
883.096786,-740.205942,0.000000,-75537.016103
883.099344,14804.118840,888.247130,-75383.797003
883.101902,7846.182985,-2220.617826,-76149.892501
883.104460,-14804.118840,444.123565,-75230.577904
883.107018,-8142.265362,-2072.576638,-74924.139704
883.109576,-19097.313304,6809.894666,-75843.454302
883.112134,-3701.029710,-7698.141797,-75690.235202
883.114692,-8586.388927,-4441.235652,-76149.892501
883.117250,5773.606348,-3997.112087,-76303.111601
883.119808,4737.318029,2812.782580,-75230.577904
883.122366,11695.253884,-7402.059420,-73238.729609
883.124923,21614.013506,-10066.800811,-73545.167808
883.127481,-5477.523971,-592.164754,-75537.016103
883.130039,-19393.395680,-4293.194464,-79061.055394
883.132597,-9474.636058,1480.411884,-76915.987999
883.135155,20429.683999,-22946.384202,-73391.948708
883.137713,21762.054695,-23982.672521,-74464.482406
883.140271,-11991.336260,-8586.388927,-78448.178995
883.142829,-34197.514520,20429.683999,-79980.369991
883.145387,-12583.501014,11991.336260,-76149.892501
883.147945,12287.418637,148.041188,-72012.976812
883.150503,6217.729913,2368.659014,-73851.606007
883.153060,5329.482782,-6069.688724,-75383.797003
883.155618,-3552.988522,-3997.112087,-75230.577904
883.158176,-5921.647536,-6957.935855,-74617.701505
883.160734,10510.924376,-6957.935855,-72932.291410
883.163292,12879.583391,-10214.842000,-73391.948708
883.165850,-2368.659014,2664.741391,-76762.768900
883.168408,-6217.729913,3997.112087,-76303.111601
883.170966,-2664.741391,-8734.430116,-74617.701505
883.173524,-2072.576638,9030.512492,-74311.263306
883.176082,3404.947333,12287.418637,-76149.892501
883.178600,-4737.318029,5329.482782,-76303.111601
883.181118,5033.400406,-444.123565,-74617.701505
883.183636,22798.343014,4737.318029,-72166.195912
883.186154,5033.400406,11103.089130,-72472.634111
883.188672,-3256.906145,3849.070898,-74617.701505
883.191190,1480.411884,4737.318029,-75690.235202
883.193708,19245.354492,-4441.235652,-75230.577904
883.196226,-3997.112087,2812.782580,-76609.549800
883.198744,-12139.377449,8438.347739,-77069.207099
883.201262,6957.935855,10510.924376,-73698.386908
883.203780,15840.407159,10658.965565,-72625.853210
883.206298,20429.683999,3256.906145,-72012.976812
883.208816,9030.512492,9918.759623,-74924.139704
883.211334,-4885.359217,4885.359217,-77375.645298
883.213852,-10658.965565,5773.606348,-79061.055394
883.216371,-148.041188,10066.800811,-72779.072310
883.218889,10362.883188,5773.606348,-70327.566716
883.221407,23390.507767,-7698.141797,-70940.443115
883.223925,5329.482782,-8142.265362,-74770.920605
883.226443,-6957.935855,-1776.494261,-77835.302597
883.228961,-296.082377,7254.018232,-76915.987999
883.231479,9030.512492,7550.100608,-75690.235202
883.233997,18653.189738,148.041188,-75690.235202
883.236515,-9622.677246,444.123565,-77835.302597
883.239033,17024.736666,-888.247130,-76149.892501
883.241551,10510.924376,-5477.523971,-75996.673402
883.244069,-6661.853478,-5181.441594,-75230.577904
883.246587,-7846.182985,-3997.112087,-76303.111601
883.249105,-22946.384202,7105.977043,-77375.645298
883.251623,-5329.482782,-7994.224174,-75996.673402
883.254142,-7550.100608,-3108.864956,-75537.016103
883.256660,3849.070898,-2664.741391,-75537.016103
883.259178,7994.224174,2220.617826,-74617.701505
883.261696,11547.212695,-8142.265362,-73545.167808
883.264214,296.082377,444.123565,-74617.701505
883.266732,-13619.789333,6217.729913,-77222.426198
883.269250,-9474.636058,0.000000,-76609.549800
883.271768,-3701.029710,-6365.771101,-74311.263306
883.274286,7402.059420,-13027.624579,-76303.111601
883.276804,3997.112087,2220.617826,-76456.330700
883.279293,-28127.825796,10362.883188,-78448.178995
883.281782,-10066.800811,16432.571912,-74158.044206
883.284271,16136.489536,-4441.235652,-71400.100414
883.286760,8290.306550,-18209.066173,-75383.797003
883.289249,-29312.155303,-5625.565159,-79673.931792
883.291738,-17912.983796,3108.864956,-78294.959896
883.294227,6069.688724,-2812.782580,-73391.948708
883.296716,-6365.771101,148.041188,-73545.167808
883.299206,-16136.489536,3701.029710,-76149.892501
883.301695,-24722.878463,7402.059420,-77988.521696
883.304184,15988.448347,-740.205942,-76149.892501
883.306673,4589.276840,-2072.576638,-74158.044206
883.309162,1628.453072,3849.070898,-74311.263306
883.311651,6661.853478,2812.782580,-75690.235202
883.314140,-2220.617826,-2220.617826,-76303.111601
883.316629,6809.894666,-8586.388927,-75690.235202
883.319118,-2812.782580,5477.523971,-76915.987999
883.321607,12287.418637,4737.318029,-76762.768900
883.324096,-148.041188,3849.070898,-75383.797003
883.326585,3108.864956,-1628.453072,-74311.263306
883.329074,-1776.494261,5773.606348,-76303.111601
883.331563,7994.224174,12583.501014,-77375.645298
883.334052,13767.830521,-740.205942,-75537.016103
883.336541,8586.388927,-1924.535449,-75077.358804
883.339030,7105.977043,-7254.018232,-75690.235202
883.341519,-24130.713709,5033.400406,-78601.398095
883.344008,-22058.137072,-7698.141797,-77988.521696
883.346497,-12139.377449,-2220.617826,-76149.892501
883.348986,-5625.565159,3552.988522,-77069.207099
883.351475,-12583.501014,5033.400406,-77988.521696
883.353964,-3552.988522,9326.594869,-75843.454302
883.356453,19245.354492,4589.276840,-71093.662214
883.358943,14656.077652,-3256.906145,-71246.881314
883.361432,6957.935855,0.000000,-74158.044206
883.363921,-1332.370696,2960.823768,-77222.426198
883.366410,4145.153275,7402.059420,-76303.111601
883.368899,31976.896694,740.205942,-74004.825107
883.371388,6069.688724,-740.205942,-74464.482406
883.373877,16284.530724,-740.205942,-75383.797003
883.376366,1332.370696,2220.617826,-76456.330700
883.378880,-6661.853478,-3404.947333,-75690.235202
883.381394,-2960.823768,-6365.771101,-75690.235202
883.383908,-18801.230927,8438.347739,-76915.987999
883.386422,-6365.771101,-5181.441594,-75383.797003
883.388936,-5921.647536,-4737.318029,-74004.825107
883.391451,8586.388927,-7402.059420,-74004.825107
883.393965,4589.276840,2072.576638,-74617.701505
883.396479,5329.482782,-8290.306550,-74924.139704
883.398993,-296.082377,-2960.823768,-75230.577904
883.401507,-10510.924376,9474.636058,-75537.016103
883.404021,-11843.295072,-11695.253884,-76149.892501
883.406535,-6069.688724,-12287.418637,-74617.701505
883.409050,-15544.324782,1332.370696,-78907.836294
883.411564,-10066.800811,10066.800811,-77835.302597
883.414078,1924.535449,148.041188,-74004.825107
883.416592,27831.743419,-22206.178260,-68795.375720
883.419106,6809.894666,-5921.647536,-73851.606007
883.421620,-22058.137072,-1924.535449,-76149.892501
883.424134,-16580.613101,-740.205942,-79214.274493
883.426648,9030.512492,-2960.823768,-75996.673402
883.429163,6513.812290,-2960.823768,-75383.797003
883.431677,-12139.377449,2220.617826,-75537.016103
883.434191,5625.565159,-11547.212695,-74158.044206
883.436705,20281.642811,-9918.759623,-73851.606007
883.439219,4145.153275,5625.565159,-76149.892501
883.441733,-10658.965565,-4885.359217,-77988.521696
883.444247,-7550.100608,12435.459826,-77222.426198
883.446762,15840.407159,6661.853478,-74004.825107
883.449276,-4145.153275,8290.306550,-74924.139704
883.451790,2812.782580,-1776.494261,-75690.235202
883.454304,10955.047942,4441.235652,-76762.768900
883.456818,11399.171507,8142.265362,-75690.235202
883.459332,5773.606348,740.205942,-74004.825107
883.461846,4737.318029,1332.370696,-74158.044206
883.464360,9918.759623,-1184.329507,-74617.701505
883.466875,-13619.789333,9622.677246,-76762.768900
883.469389,-2812.782580,-592.164754,-76149.892501
883.471903,9326.594869,8586.388927,-74158.044206
883.474417,28423.908173,-9178.553681,-71859.757712
883.476931,3404.947333,-7698.141797,-73851.606007
883.479466,-6661.853478,-6809.894666,-75690.235202
883.482000,3108.864956,-3701.029710,-75077.358804
883.484534,-2368.659014,5181.441594,-77835.302597
883.487069,-7105.977043,16580.613101,-75690.235202
883.489603,1924.535449,11843.295072,-76149.892501
883.492137,3997.112087,6069.688724,-73851.606007
883.494672,2368.659014,296.082377,-74770.920605
883.497206,1332.370696,3701.029710,-76303.111601
883.499740,7254.018232,4145.153275,-77069.207099
883.502275,32865.143825,-888.247130,-74311.263306
883.504809,296.082377,1332.370696,-75843.454302
883.507344,12435.459826,3404.947333,-75690.235202
883.509878,-7105.977043,-444.123565,-75843.454302
883.512412,-11991.336260,-3849.070898,-77528.864398
883.514947,-13767.830521,-2516.700203,-78601.398095
883.517481,-18653.189738,12731.542202,-78294.959896
883.520015,-4145.153275,-5181.441594,-76915.987999
883.522550,3256.906145,-9030.512492,-74004.825107
883.525084,6069.688724,-3256.906145,-73851.606007
883.527619,4145.153275,888.247130,-75690.235202
883.530153,5033.400406,-2368.659014,-75230.577904
883.532687,-4293.194464,5773.606348,-76915.987999
883.535222,148.041188,7254.018232,-74924.139704
883.537756,-6365.771101,-11843.295072,-75537.016103
883.540290,-14359.995275,-5181.441594,-75537.016103
883.542825,1480.411884,-25018.960840,-75843.454302
883.545359,-9770.718434,-13619.789333,-77069.207099
883.547893,-21317.931130,740.205942,-78448.178995
883.550428,-10955.047942,8734.430116,-75996.673402
883.552962,444.123565,1628.453072,-74311.263306
883.555497,11399.171507,-13619.789333,-72779.072310
883.558031,-12879.583391,-4885.359217,-77528.864398
883.560565,-7402.059420,-3701.029710,-77528.864398
883.563100,-2516.700203,-4737.318029,-75996.673402
883.565634,4737.318029,-3404.947333,-75690.235202
883.568168,-21762.054695,5773.606348,-76149.892501
883.570703,14804.118840,-148.041188,-75077.358804
883.573237,-1184.329507,-3552.988522,-74770.920605
883.575772,1924.535449,7994.224174,-74617.701505
883.578306,13027.624579,2368.659014,-74464.482406
883.580857,-5477.523971,1036.288319,-76456.330700
883.583407,5773.606348,-11399.171507,-75230.577904
883.585958,-3997.112087,4737.318029,-76149.892501
883.588508,6513.812290,8586.388927,-75843.454302
883.591059,-1776.494261,5921.647536,-75230.577904
883.593610,8438.347739,-444.123565,-73851.606007
883.596160,2516.700203,5033.400406,-75230.577904
883.598711,10362.883188,-444.123565,-74924.139704
883.601262,-3849.070898,-3701.029710,-75843.454302
883.603812,3256.906145,-13619.789333,-74464.482406
883.606363,-148.041188,1480.411884,-77069.207099
883.608913,-20429.683999,4293.194464,-78448.178995
883.611464,-740.205942,-8734.430116,-74158.044206
883.614015,14063.912898,-9178.553681,-71859.757712
883.616565,6513.812290,-6957.935855,-74924.139704
883.619116,-12287.418637,4885.359217,-78754.617194
883.621666,-13175.665768,18061.024985,-78754.617194
883.624217,1332.370696,12879.583391,-74464.482406
883.626768,13915.871710,-1184.329507,-73238.729609
883.629318,4441.235652,-740.205942,-75230.577904
883.631869,2072.576638,-3256.906145,-76456.330700
883.634420,32717.102636,-4589.276840,-75077.358804
883.636970,9326.594869,-740.205942,-75077.358804
883.639521,13175.665768,7550.100608,-75077.358804
883.642071,-11991.336260,-1628.453072,-76149.892501
883.644622,-9030.512492,-6365.771101,-75383.797003
883.647173,-1924.535449,-1776.494261,-76149.892501
883.649723,-15248.242405,10510.924376,-77222.426198
883.652274,-4589.276840,-8142.265362,-77069.207099
883.654825,1332.370696,-8882.471304,-75077.358804
883.657375,7105.977043,-1036.288319,-73851.606007
883.659926,3256.906145,2664.741391,-74311.263306
883.662476,5181.441594,1480.411884,-75077.358804
883.665027,4145.153275,7698.141797,-77682.083497
883.667578,3701.029710,148.041188,-75230.577904
883.670128,-888.247130,-14359.995275,-73391.948708
883.672679,-10955.047942,-296.082377,-76149.892501
883.675229,-6809.894666,5181.441594,-78448.178995
883.677780,-17912.983796,21614.013506,-76149.892501
883.680331,11251.130318,444.123565,-71706.538613
883.682893,32124.937883,-20281.642811,-70327.566716
883.685455,-8882.471304,-8586.388927,-75537.016103
883.688017,-30940.608376,4737.318029,-78754.617194
883.690579,-1184.329507,-2072.576638,-76762.768900
883.693142,2664.741391,2072.576638,-74770.920605
883.695704,-5477.523971,-1332.370696,-75690.235202
883.698266,-4737.318029,-1776.494261,-74158.044206
883.700828,12879.583391,-7254.018232,-75230.577904
883.703390,6069.688724,-4293.194464,-75537.016103
883.705953,3256.906145,-2812.782580,-76609.549800
883.708515,-9178.553681,16432.571912,-77375.645298
883.711077,14211.954086,6661.853478,-75077.358804
883.713639,1480.411884,5033.400406,-73851.606007
883.716201,6513.812290,1036.288319,-74004.825107
883.718763,10362.883188,-1628.453072,-76149.892501
883.721326,12583.501014,6513.812290,-75690.235202
883.723888,2812.782580,888.247130,-76149.892501
883.726450,592.164754,3849.070898,-74311.263306
883.729012,7846.182985,9770.718434,-75077.358804
883.731574,-2368.659014,7994.224174,-75230.577904
883.734137,19097.313304,3108.864956,-72012.976812
883.736699,13175.665768,7994.224174,-72166.195912
883.739261,24278.754898,-2516.700203,-71859.757712
883.741823,13175.665768,-21021.848753,-73698.386908
883.744385,-12287.418637,1776.494261,-75383.797003
883.746947,-26647.413912,3256.906145,-79520.712692
883.749510,-20577.725188,18505.148550,-78141.740796
883.752072,-740.205942,15988.448347,-73698.386908
883.754634,3849.070898,5181.441594,-73698.386908
883.757196,5033.400406,-4737.318029,-74464.482406
883.759758,2516.700203,8290.306550,-76303.111601
883.762321,5773.606348,4293.194464,-76149.892501
883.764883,33753.390955,-4293.194464,-74617.701505
883.767445,3701.029710,1776.494261,-76915.987999
883.770007,11399.171507,5773.606348,-76762.768900
883.772569,-888.247130,-1036.288319,-76149.892501
883.775131,-740.205942,-6809.894666,-75690.235202
883.777694,-15100.201217,444.123565,-77528.864398
883.780256,-16728.654289,2812.782580,-79214.274493
883.782818,2960.823768,-9178.553681,-76303.111601
883.785389,888.247130,-2960.823768,-74924.139704
883.787961,2220.617826,-4293.194464,-72472.634111
883.790532,-592.164754,-1184.329507,-74464.482406
883.793103,1332.370696,-2812.782580,-74924.139704
883.795675,8882.471304,-9178.553681,-74158.044206
883.798246,10807.006753,-4589.276840,-74464.482406
883.800817,-19541.436869,-13767.830521,-75843.454302
883.803389,-31976.896694,7846.182985,-79061.055394
883.805960,-10807.006753,13767.830521,-77682.083497
883.808531,-11251.130318,11695.253884,-77069.207099
883.811103,-148.041188,18061.024985,-72625.853210
883.813674,7698.141797,-1776.494261,-71246.881314
883.816245,12583.501014,-19245.354492,-72779.072310
883.818817,-11547.212695,-3256.906145,-75996.673402
883.821388,-10807.006753,-2516.700203,-76915.987999
883.823959,-7846.182985,-4441.235652,-76762.768900
883.826531,296.082377,-1628.453072,-74464.482406
883.829102,-6365.771101,148.041188,-73391.948708
883.831673,18653.189738,-444.123565,-72166.195912
883.834245,-4441.235652,-2220.617826,-75230.577904
883.836816,5033.400406,-5033.400406,-75230.577904
883.839387,6217.729913,6069.688724,-75537.016103
883.841959,3701.029710,3701.029710,-75843.454302
883.844530,-2368.659014,1036.288319,-75996.673402
883.847101,-1480.411884,5329.482782,-75230.577904
883.849673,15840.407159,8142.265362,-75383.797003
883.852244,6217.729913,5921.647536,-76762.768900
883.854815,11103.089130,592.164754,-76303.111601
883.857387,5181.441594,3108.864956,-75537.016103
883.859958,6661.853478,13175.665768,-74924.139704
883.862529,-4145.153275,12435.459826,-74924.139704
883.865101,13471.748144,6217.729913,-76609.549800
883.867672,-9030.512492,22798.343014,-77988.521696
883.870243,-3552.988522,28127.825796,-78294.959896
883.872815,-4145.153275,20133.601622,-75537.016103
883.875386,22502.260637,7550.100608,-70480.785816
883.877957,18653.189738,-444.123565,-71246.881314
883.880529,2664.741391,2368.659014,-74464.482406
883.883100,-7994.224174,-2072.576638,-75537.016103
883.885671,-740.205942,-5181.441594,-74770.920605
883.888207,6661.853478,1628.453072,-73545.167808
883.890743,9622.677246,1924.535449,-73851.606007
883.893279,12731.542202,3108.864956,-74770.920605
883.895814,1628.453072,1628.453072,-75077.358804
883.898350,4293.194464,7402.059420,-75077.358804
883.900886,5477.523971,6365.771101,-73545.167808
883.903422,2960.823768,-6661.853478,-72319.415011
883.905958,-1332.370696,-11991.336260,-72779.072310
883.908494,-9030.512492,-2960.823768,-76609.549800
883.911029,-13915.871710,148.041188,-77069.207099
883.913565,-10214.842000,-2812.782580,-77069.207099
883.916101,8290.306550,-6217.729913,-76303.111601
883.918637,8734.430116,-1480.411884,-74617.701505
883.921173,3849.070898,-1480.411884,-75230.577904
883.923708,1924.535449,-3256.906145,-76303.111601
883.926244,-8882.471304,11103.089130,-77069.207099
883.928780,-1184.329507,740.205942,-77069.207099
883.931316,-16876.695478,3108.864956,-76762.768900
883.933852,6809.894666,1480.411884,-76915.987999
883.936387,-4589.276840,1480.411884,-77375.645298
883.938923,-7994.224174,1628.453072,-76149.892501
883.941459,-16876.695478,10807.006753,-75843.454302
883.943995,-2072.576638,1184.329507,-76762.768900
883.946531,-6365.771101,1036.288319,-76609.549800
883.949066,-7550.100608,-2072.576638,-76915.987999
883.951602,-6069.688724,-4885.359217,-77375.645298
883.954138,-5773.606348,-6069.688724,-76609.549800
883.956674,-18653.189738,4885.359217,-76915.987999
883.959210,12435.459826,3849.070898,-74617.701505
883.961746,5181.441594,1924.535449,-76149.892501
883.964281,8734.430116,3256.906145,-75996.673402
883.966817,14508.036463,4737.318029,-75230.577904
883.969353,444.123565,1036.288319,-75077.358804
883.971889,-2072.576638,-444.123565,-74464.482406
883.974425,-7254.018232,5181.441594,-76303.111601
883.976960,8586.388927,5181.441594,-75996.673402
883.979496,1628.453072,4737.318029,-75996.673402
883.982032,10214.842000,888.247130,-74617.701505
883.984568,2072.576638,3849.070898,-73085.510509
883.987104,7698.141797,12583.501014,-71553.319513
883.989654,5477.523971,-3404.947333,-71706.538613
883.992204,17468.860231,-15396.283594,-72012.976812
883.994754,-17320.819043,3701.029710,-79214.274493
883.997304,-25759.166782,888.247130,-81972.218286
883.999855,-11103.089130,-1332.370696,-76149.892501
884.002405,0.000000,4737.318029,-75077.358804
884.004955,-3108.864956,25018.960840,-75996.673402
884.007505,-3256.906145,19985.560434,-76303.111601
884.010055,5921.647536,6809.894666,-76456.330700
884.012606,-296.082377,2960.823768,-76915.987999
884.015156,1628.453072,2220.617826,-77835.302597
884.017706,3404.947333,9918.759623,-76762.768900
884.020256,24574.837274,444.123565,-74004.825107
884.022806,10510.924376,-296.082377,-74924.139704
884.025356,18209.066173,-296.082377,-74924.139704
884.027907,-3552.988522,-12139.377449,-75843.454302
884.030457,-11547.212695,-15396.283594,-76149.892501
884.033007,-13027.624579,-2960.823768,-76303.111601
884.035557,-21762.054695,7254.018232,-77528.864398
884.038107,-14211.954086,-1480.411884,-77375.645298
884.040658,7698.141797,-14211.954086,-76303.111601
884.043208,8438.347739,-2368.659014,-75383.797003
884.045758,-740.205942,4293.194464,-76303.111601
884.048308,4885.359217,296.082377,-75690.235202
884.050858,10658.965565,-6513.812290,-74770.920605
884.053409,-3256.906145,15100.201217,-75077.358804
884.055959,444.123565,3849.070898,-74617.701505
884.058509,16876.695478,-12139.377449,-72932.291410
884.061059,17912.983796,1184.329507,-73545.167808
884.063609,9030.512492,-13471.748144,-71553.319513
884.066159,7254.018232,-16136.489536,-70327.566716
884.068710,3404.947333,-10362.883188,-73698.386908
884.071260,-8882.471304,-3256.906145,-75230.577904
884.073810,-9030.512492,1184.329507,-75537.016103
884.076360,-2072.576638,-2516.700203,-75230.577904
884.078910,-8142.265362,-3108.864956,-75690.235202
884.081461,-21465.972318,2516.700203,-75383.797003
884.084011,13323.706956,-3256.906145,-72625.853210
884.086561,4293.194464,-888.247130,-74617.701505
884.089111,5477.523971,1628.453072,-75537.016103
884.091673,5181.441594,9326.594869,-76303.111601
884.094235,-296.082377,5477.523971,-76303.111601
884.096797,5773.606348,-8586.388927,-74311.263306
884.099358,-8882.471304,5329.482782,-76149.892501
884.101920,7550.100608,7105.977043,-76762.768900
884.104482,1628.453072,5181.441594,-76456.330700
884.107044,11547.212695,2220.617826,-75996.673402
884.109606,4145.153275,4589.276840,-76303.111601
884.112168,9030.512492,2960.823768,-75077.358804
884.114729,8586.388927,-13323.706956,-74770.920605
884.117291,-444.123565,-22058.137072,-77069.207099
884.119853,-22946.384202,3404.947333,-80593.246390
884.122415,-26499.372724,1628.453072,-81052.903688
884.124977,9474.636058,-7994.224174,-72779.072310
884.127539,35677.926404,-13915.871710,-70787.224015
884.130100,28127.825796,3552.988522,-70480.785816
884.132662,-148.041188,-1184.329507,-76609.549800
884.135224,-13027.624579,-592.164754,-78754.617194
884.137786,-296.082377,5477.523971,-74617.701505
884.140348,9622.677246,5033.400406,-74924.139704
884.142909,1332.370696,4293.194464,-77222.426198
884.145471,3701.029710,6513.812290,-77069.207099
884.148033,18357.107362,2516.700203,-73698.386908
884.150595,20873.807564,10214.842000,-72625.853210
884.153157,5477.523971,-7698.141797,-74004.825107
884.155719,-4737.318029,-7254.018232,-75690.235202
884.158280,-8142.265362,-740.205942,-76915.987999
884.160842,-9178.553681,-1184.329507,-76915.987999
884.163404,-15544.324782,-1332.370696,-77222.426198
884.165966,-4885.359217,-7994.224174,-76456.330700
884.168528,5625.565159,888.247130,-74464.482406
884.171090,7402.059420,148.041188,-74770.920605
884.173651,5625.565159,740.205942,-75077.358804
884.176213,7846.182985,-148.041188,-74924.139704
884.178775,-5921.647536,-1184.329507,-75077.358804
884.181337,-7105.977043,1332.370696,-75383.797003
884.183899,-6365.771101,-2516.700203,-75230.577904
884.186460,2368.659014,-2812.782580,-75077.358804
884.189022,740.205942,-8142.265362,-73238.729609
884.191584,2220.617826,-8882.471304,-73545.167808
884.194155,1628.453072,-5773.606348,-72625.853210
884.196726,-10066.800811,-1628.453072,-75537.016103
884.199298,-18061.024985,-1036.288319,-76456.330700
884.201869,-15988.448347,5181.441594,-77222.426198
884.204440,-1480.411884,-3849.070898,-74924.139704
884.207011,9474.636058,-5329.482782,-73851.606007
884.209582,-7105.977043,2516.700203,-74004.825107
884.212153,1332.370696,-4589.276840,-75077.358804
884.214724,5477.523971,11399.171507,-76149.892501
884.217295,14211.954086,9770.718434,-76303.111601
884.219866,1480.411884,2960.823768,-76762.768900
884.222437,-3108.864956,4293.194464,-76609.549800
884.225008,15248.242405,5477.523971,-74464.482406
884.227580,8290.306550,6513.812290,-75077.358804
884.230151,8438.347739,1184.329507,-76149.892501
884.232722,10362.883188,1184.329507,-77222.426198
884.235293,15100.201217,-2664.741391,-76762.768900
884.237864,8734.430116,6809.894666,-75383.797003
884.240435,13767.830521,-16728.654289,-74158.044206
884.243006,-1184.329507,1924.535449,-76456.330700
884.245577,-10214.842000,-5921.647536,-78601.398095
884.248148,-18357.107362,12583.501014,-79367.493593
884.250719,5921.647536,4441.235652,-76303.111601
884.253290,-740.205942,16284.530724,-75230.577904
884.255862,11103.089130,7105.977043,-72012.976812
884.258433,-1184.329507,3849.070898,-74158.044206
884.261004,-6957.935855,1184.329507,-76456.330700
884.263575,12435.459826,-1924.535449,-75996.673402
884.266146,11843.295072,2960.823768,-76609.549800
884.268717,-10955.047942,11547.212695,-76762.768900
884.271288,5329.482782,4737.318029,-73851.606007
884.273859,8882.471304,8586.388927,-72319.415011
884.276437,2220.617826,-5477.523971,-72625.853210
884.279015,-15396.283594,-7698.141797,-74924.139704
884.281593,-11547.212695,-888.247130,-76762.768900
884.284171,-11547.212695,-8882.471304,-76915.987999
884.286749,-14508.036463,-1332.370696,-74924.139704
884.289327,1924.535449,-5773.606348,-73698.386908
884.291905,11991.336260,-1184.329507,-72472.634111
884.294483,5477.523971,-592.164754,-75077.358804
884.297061,-296.082377,4589.276840,-75843.454302
884.299639,1480.411884,-10807.006753,-76762.768900
884.302217,1480.411884,-3997.112087,-75690.235202
884.304795,-6661.853478,-5625.565159,-77222.426198
884.307373,-740.205942,296.082377,-77375.645298
884.309951,7402.059420,-5181.441594,-76149.892501
884.312529,11843.295072,-8290.306550,-74004.825107
884.315107,9326.594869,-3849.070898,-74464.482406
884.317685,-5921.647536,-3849.070898,-76915.987999
884.320263,-9918.759623,-7105.977043,-77528.864398
884.322841,1184.329507,-7550.100608,-76456.330700
884.325419,-1924.535449,-13915.871710,-76149.892501
884.327997,-21910.095883,5477.523971,-76762.768900
884.330575,5477.523971,-3256.906145,-75230.577904
884.333153,888.247130,-3701.029710,-73545.167808
884.335731,7402.059420,2812.782580,-73698.386908
884.338309,14359.995275,5033.400406,-74924.139704
884.340887,-7254.018232,4145.153275,-77375.645298
884.343465,-1332.370696,-7698.141797,-74617.701505
884.346043,-11399.171507,3256.906145,-75537.016103
884.348621,5033.400406,5921.647536,-74924.139704
884.351199,-4293.194464,4441.235652,-75996.673402
884.353777,8586.388927,3849.070898,-76303.111601
884.356355,2516.700203,6069.688724,-75843.454302
884.358933,9474.636058,3997.112087,-74311.263306
884.361511,3552.988522,12879.583391,-73698.386908
884.364089,15544.324782,1480.411884,-72779.072310
884.366667,11843.295072,1776.494261,-74004.825107
884.369245,3256.906145,6809.894666,-77222.426198
884.371823,-8290.306550,15396.283594,-78294.959896
884.374401,-2960.823768,10658.965565,-76762.768900
884.376979,1776.494261,3404.947333,-74004.825107
884.379562,13471.748144,1332.370696,-72472.634111
884.382145,4441.235652,4737.318029,-74924.139704
884.384728,148.041188,3108.864956,-78141.740796
884.387310,10362.883188,7994.224174,-76609.549800
884.389893,15248.242405,12583.501014,-75383.797003
884.392476,12435.459826,6217.729913,-73698.386908
884.395059,20281.642811,8290.306550,-72625.853210
884.397642,7254.018232,-10807.006753,-72779.072310
884.400224,-5477.523971,-13323.706956,-74311.263306
884.402807,-10214.842000,-4737.318029,-76149.892501
884.405390,-26943.496289,888.247130,-77682.083497
884.407973,-21169.889941,1924.535449,-77375.645298
884.410555,740.205942,-8290.306550,-75690.235202
884.413138,10362.883188,-1332.370696,-73238.729609
884.415721,-3849.070898,1184.329507,-75077.358804
884.418304,2812.782580,-444.123565,-75077.358804
884.420887,7550.100608,-17024.736666,-75383.797003
884.423469,4737.318029,-4293.194464,-74770.920605
884.426052,-10955.047942,-10066.800811,-77375.645298
884.428635,-10807.006753,-7550.100608,-77528.864398
884.431218,4293.194464,-7846.182985,-76303.111601
884.433801,3404.947333,-12731.542202,-74464.482406
884.436383,-5921.647536,-2516.700203,-75843.454302
884.438966,-8142.265362,-3404.947333,-76762.768900
884.441549,-5181.441594,-6365.771101,-77222.426198
884.444132,-7402.059420,-3997.112087,-76915.987999
884.446715,3256.906145,-11843.295072,-76149.892501
884.449297,-17616.901420,3552.988522,-77835.302597
884.451880,6957.935855,-444.123565,-75690.235202
884.454463,888.247130,-5477.523971,-74464.482406
884.457046,9474.636058,13175.665768,-74004.825107
884.459629,15100.201217,10658.965565,-75230.577904
884.462211,5625.565159,7254.018232,-74770.920605
884.464794,9178.553681,-8290.306550,-74004.825107
884.467377,-10214.842000,6513.812290,-72625.853210
884.469960,592.164754,6069.688724,-74617.701505
884.472543,-11399.171507,5477.523971,-76456.330700
884.475125,13323.706956,740.205942,-75230.577904
884.477708,8734.430116,3404.947333,-75230.577904
884.480291,1924.535449,8290.306550,-74770.920605
884.482878,-8586.388927,-10658.965565,-75690.235202
884.485464,-10362.883188,2368.659014,-76915.987999
884.488050,-17024.736666,-3256.906145,-79827.150892
884.490637,-27683.702231,8734.430116,-79827.150892
884.493223,-15840.407159,4885.359217,-80593.246390
884.495810,1776.494261,4737.318029,-75077.358804
884.498396,13175.665768,-2368.659014,-71859.757712
884.500983,7254.018232,8290.306550,-73851.606007
884.503569,592.164754,3997.112087,-76456.330700
884.506156,4885.359217,1332.370696,-76915.987999
884.508742,29460.196492,-6217.729913,-74617.701505
884.511329,1924.535449,-2220.617826,-76609.549800
884.513915,296.082377,9178.553681,-77222.426198
884.516502,2664.741391,4885.359217,-76303.111601
884.519088,-2664.741391,-3108.864956,-74311.263306
884.521675,-7105.977043,-5921.647536,-74770.920605
884.524261,-13767.830521,-5181.441594,-76762.768900
884.526848,-3404.947333,-6513.812290,-76149.892501
884.529434,-13027.624579,-1480.411884,-75077.358804
884.532021,5329.482782,-3997.112087,-74311.263306
884.534607,4145.153275,-296.082377,-74004.825107
884.537194,6513.812290,-3404.947333,-74311.263306
884.539780,-148.041188,3849.070898,-74924.139704
884.542367,-3108.864956,-11399.171507,-76609.549800
884.544953,-23834.631332,9030.512492,-77528.864398
884.547540,-13027.624579,4293.194464,-76609.549800
884.550126,-7105.977043,-2960.823768,-77528.864398
884.552713,-1924.535449,6957.935855,-75383.797003
884.555299,-5477.523971,-1480.411884,-74464.482406
884.557886,740.205942,-1332.370696,-73698.386908
884.560472,296.082377,-7698.141797,-74924.139704
884.563059,-8882.471304,-9178.553681,-76303.111601
884.565645,-2516.700203,-10362.883188,-77222.426198
884.568232,-19245.354492,3997.112087,-77988.521696
884.570818,6513.812290,-740.205942,-76456.330700
884.573405,-5625.565159,-3404.947333,-74617.701505
884.575991,7698.141797,444.123565,-73391.948708
884.578578,15692.365970,8290.306550,-75077.358804
884.581164,2516.700203,5477.523971,-76456.330700
884.583751,444.123565,1036.288319,-76915.987999
884.586339,-7550.100608,6513.812290,-75996.673402
884.588927,13175.665768,7550.100608,-74770.920605
884.591516,-1036.288319,7254.018232,-75843.454302
884.594104,9622.677246,1628.453072,-75077.358804
884.596692,4885.359217,3701.029710,-75996.673402
884.599281,10066.800811,3701.029710,-75077.358804
884.601869,296.082377,-9918.759623,-73085.510509
884.604458,5033.400406,-11103.089130,-74158.044206
884.607046,-15100.201217,6217.729913,-77682.083497
884.609634,-30940.608376,14508.036463,-80440.027290
884.612223,-15100.201217,20133.601622,-77988.521696
884.614811,18209.066173,5329.482782,-72166.195912
884.617399,16284.530724,-2072.576638,-71400.100414
884.619988,-1628.453072,-2664.741391,-74924.139704
884.622576,-2220.617826,4293.194464,-74004.825107
884.625165,4145.153275,9178.553681,-75843.454302
884.627753,29016.072926,-1184.329507,-74924.139704
884.630341,2220.617826,296.082377,-76149.892501
884.632930,11991.336260,3701.029710,-75537.016103
884.635518,4293.194464,1036.288319,-74770.920605
884.638106,-2960.823768,0.000000,-73851.606007
884.640695,-7254.018232,-6661.853478,-75843.454302
884.643283,-15248.242405,0.000000,-77528.864398
884.645872,-296.082377,-8586.388927,-77375.645298
884.648460,-11251.130318,-2368.659014,-76609.549800
884.651048,-592.164754,-5329.482782,-75077.358804
884.653637,1628.453072,1036.288319,-74464.482406
884.656225,12583.501014,-5181.441594,-74004.825107
884.658813,5329.482782,-3108.864956,-75077.358804
884.661402,1480.411884,592.164754,-75843.454302
884.663990,24278.754898,-34049.473332,-71553.319513
884.666578,1480.411884,-33309.267390,-75537.016103
884.669167,-28423.908173,2368.659014,-80899.684589
884.671755,-46781.015534,22058.137072,-81512.560987
884.674344,6513.812290,8882.471304,-71859.757712
884.676932,18653.189738,-7402.059420,-72166.195912
884.679520,-26351.331535,1036.288319,-77528.864398
884.682109,-13767.830521,-12879.583391,-76915.987999
884.684697,8290.306550,-18949.272115,-75537.016103
884.687285,28571.949361,-11843.295072,-72625.853210
884.689875,-12731.542202,10066.800811,-75690.235202
884.692465,-12583.501014,1184.329507,-77375.645298
884.695055,-2220.617826,6957.935855,-76456.330700
884.697644,32421.020260,8734.430116,-73391.948708
884.700234,-7846.182985,9918.759623,-75690.235202
884.702824,9770.718434,-5181.441594,-75537.016103
884.705414,1480.411884,-5033.400406,-76609.549800
884.708003,15100.201217,6661.853478,-74004.825107
884.710593,-14063.912898,4885.359217,-77682.083497
884.713183,9474.636058,3404.947333,-76303.111601
884.715773,11103.089130,-2516.700203,-76609.549800
884.718362,8586.388927,888.247130,-75537.016103
884.720952,-12139.377449,6957.935855,-75843.454302
884.723542,-17764.942608,9770.718434,-77835.302597
884.726132,10510.924376,3701.029710,-72625.853210
884.728721,24574.837274,-13471.748144,-71246.881314
884.731311,7846.182985,-3552.988522,-75996.673402
884.733901,-7698.141797,5181.441594,-77528.864398
884.736491,-592.164754,7846.182985,-75230.577904
884.739080,11991.336260,12139.377449,-71093.662214
884.741670,2812.782580,5477.523971,-75077.358804
884.744260,4589.276840,4145.153275,-77835.302597
884.746850,3701.029710,-5625.565159,-77528.864398
884.749439,9770.718434,8290.306550,-76609.549800
884.752029,2368.659014,13915.871710,-74464.482406
884.754619,0.000000,-2960.823768,-74158.044206
884.757209,-740.205942,-11103.089130,-73698.386908
884.759798,-11547.212695,-6513.812290,-75843.454302
884.762388,-13027.624579,-1036.288319,-77528.864398
884.764978,-18209.066173,1628.453072,-78754.617194
884.767568,2072.576638,-7994.224174,-75843.454302
884.770157,7254.018232,-1628.453072,-73545.167808
884.772747,2220.617826,-444.123565,-74924.139704
884.775337,3404.947333,-592.164754,-75843.454302
884.777927,-2664.741391,14952.160028,-77835.302597
884.780516,10658.965565,-2220.617826,-74464.482406
884.783106,5773.606348,1332.370696,-74311.263306
884.785696,5477.523971,4293.194464,-75537.016103
884.788286,-8438.347739,5625.565159,-75230.577904
884.790875,5181.441594,-7550.100608,-73391.948708
884.793428,6661.853478,-5921.647536,-73851.606007
884.795980,-12583.501014,-4145.153275,-76762.768900
884.798533,-8142.265362,-7994.224174,-76609.549800
884.801085,3256.906145,-13767.830521,-74770.920605
884.803638,-1776.494261,296.082377,-75690.235202
884.806190,-9622.677246,5329.482782,-76303.111601
884.808743,-3552.988522,-6513.812290,-75843.454302
884.811296,-1628.453072,9770.718434,-74924.139704
884.813848,23094.425390,10658.965565,-74617.701505
884.816401,-1332.370696,7105.977043,-75383.797003
884.818953,14952.160028,-5477.523971,-73851.606007
884.821506,1036.288319,-4885.359217,-75383.797003
884.824058,9178.553681,6513.812290,-74004.825107
884.826611,-11843.295072,3108.864956,-76915.987999
884.829163,12731.542202,888.247130,-75383.797003
884.831716,7846.182985,2812.782580,-76609.549800
884.834268,8438.347739,-3404.947333,-76456.330700
884.836821,11103.089130,-14508.036463,-74770.920605
884.839373,-2812.782580,-148.041188,-74924.139704
884.841926,4737.318029,5181.441594,-76303.111601
884.844478,2072.576638,-4293.194464,-76303.111601
884.847031,4145.153275,1184.329507,-76915.987999
884.849583,1184.329507,7105.977043,-76609.549800
884.852136,-1924.535449,8586.388927,-75077.358804
884.854688,5477.523971,11695.253884,-73698.386908
884.857241,2072.576638,9770.718434,-74770.920605
884.859794,24722.878463,-3552.988522,-75077.358804
884.862346,12879.583391,-8882.471304,-76609.549800
884.864899,6365.771101,6217.729913,-76456.330700
884.867451,-592.164754,-3256.906145,-73851.606007
884.870004,-10955.047942,-444.123565,-74770.920605
884.872556,-9030.512492,-2812.782580,-75383.797003
884.875109,-25315.043216,5921.647536,-76915.987999
884.877661,2664.741391,-7550.100608,-76149.892501
884.880214,-9030.512492,-3701.029710,-76609.549800
884.882766,5033.400406,-5625.565159,-74770.920605
884.885319,-1776.494261,-1036.288319,-73238.729609
884.887871,5181.441594,-2368.659014,-72472.634111
884.890424,5181.441594,-3849.070898,-75537.016103
884.892976,-4885.359217,-9474.636058,-78754.617194
884.895537,-30348.443622,10510.924376,-80133.589091
884.898098,-19541.436869,-6957.935855,-79367.493593
884.900659,-17320.819043,8290.306550,-78907.836294
884.903219,-13175.665768,4145.153275,-75383.797003
884.905780,5329.482782,-1924.535449,-73698.386908
884.908341,-6069.688724,3849.070898,-75843.454302
884.910902,-4885.359217,-9918.759623,-77222.426198
884.913462,-8586.388927,-15248.242405,-77682.083497
884.916023,-14211.954086,0.000000,-77682.083497
884.918584,444.123565,6661.853478,-76456.330700
884.921145,-3849.070898,-1776.494261,-74924.139704
884.923706,5625.565159,-1628.453072,-73238.729609
884.926266,23094.425390,4441.235652,-73851.606007
884.928827,444.123565,10066.800811,-76609.549800
884.931388,1776.494261,-1332.370696,-76609.549800
884.933949,-15840.407159,3997.112087,-76149.892501
884.936509,16284.530724,5477.523971,-72472.634111
884.939070,-1924.535449,3256.906145,-74158.044206
884.941631,3849.070898,1332.370696,-75383.797003
884.944192,-3256.906145,3849.070898,-76762.768900
884.946752,9770.718434,-888.247130,-75843.454302
884.949313,5033.400406,-11251.130318,-75383.797003
884.951874,-24426.796086,6957.935855,-79061.055394
884.954435,-59068.434172,43820.191766,-83504.409282
884.956995,-7994.224174,26499.372724,-85802.695776
884.959556,-17468.860231,15248.242405,-77528.864398
884.962117,31976.896694,740.205942,-69255.033019
884.964678,10658.965565,-2220.617826,-72472.634111
884.967238,-18653.189738,296.082377,-77682.083497
884.969799,-888.247130,8586.388927,-72932.291410
884.972360,40415.244433,-444.123565,-72012.976812
884.974921,-4441.235652,-740.205942,-77528.864398
884.977481,17616.901420,-3552.988522,-76456.330700
884.980042,9178.553681,1036.288319,-73698.386908
884.982603,7105.977043,-1036.288319,-72012.976812
884.985164,-11547.212695,-3849.070898,-74770.920605
884.987724,-13767.830521,-5773.606348,-76915.987999
884.990285,-6957.935855,-10807.006753,-78141.740796
884.992846,-6365.771101,-6661.853478,-76609.549800
884.995407,7698.141797,-5625.565159,-75537.016103
884.997974,-1184.329507,-1036.288319,-73391.948708
885.000542,3108.864956,-2812.782580,-73545.167808
885.003109,7254.018232,-2664.741391,-73698.386908
885.005676,8882.471304,-3997.112087,-75843.454302
885.008244,888.247130,-7105.977043,-76456.330700
885.010811,-12435.459826,6365.771101,-76762.768900
885.013379,7254.018232,-3849.070898,-75690.235202
885.015946,7994.224174,-6957.935855,-72472.634111
885.018513,10658.965565,-9770.718434,-72625.853210
885.021081,-1628.453072,-4885.359217,-75690.235202
885.023648,-7550.100608,-8142.265362,-77222.426198
885.026216,-1036.288319,-16876.695478,-77069.207099
885.028783,-10066.800811,296.082377,-77375.645298
885.031351,-6513.812290,8586.388927,-76915.987999
885.033918,-7698.141797,444.123565,-75996.673402
885.036485,6809.894666,7846.182985,-73545.167808
885.039053,35085.761651,9326.594869,-73851.606007
885.041620,5773.606348,8586.388927,-76456.330700
885.044188,5921.647536,-4293.194464,-76915.987999
885.046755,-15248.242405,4293.194464,-76149.892501
885.049322,9622.677246,5033.400406,-72932.291410
885.051890,-3256.906145,2516.700203,-74770.920605
885.054457,11843.295072,-592.164754,-75230.577904
885.057025,-740.205942,2072.576638,-76609.549800
885.059592,2516.700203,17764.942608,-75230.577904
885.062160,-10214.842000,14359.995275,-74924.139704
885.064727,6513.812290,25611.125593,-72779.072310
885.067294,3256.906145,15396.283594,-73391.948708
885.069862,16136.489536,14804.118840,-72932.291410
885.072429,8586.388927,1036.288319,-74617.701505
885.074997,6365.771101,-5329.482782,-74464.482406
885.077564,4145.153275,-2960.823768,-74617.701505
885.080131,3997.112087,3256.906145,-72779.072310
885.082699,-296.082377,10066.800811,-76149.892501
885.085266,10214.842000,7105.977043,-76303.111601
885.087834,25167.002028,444.123565,-75383.797003
885.090401,16432.571912,6365.771101,-74924.139704
885.092969,12435.459826,-9326.594869,-73545.167808
885.095536,-7994.224174,-7254.018232,-74004.825107
885.098103,-1628.453072,-6217.729913,-74770.920605
885.100639,-26795.455100,5921.647536,-77528.864398
885.103175,-2368.659014,-5773.606348,-77528.864398
885.105711,-4589.276840,-7402.059420,-77069.207099
885.108246,8586.388927,-3108.864956,-75537.016103
885.110782,-1776.494261,-2960.823768,-74004.825107
885.113318,2812.782580,-6661.853478,-74464.482406
885.115854,14952.160028,-11399.171507,-74617.701505
885.118389,-592.164754,-3552.988522,-78448.178995
885.120925,-17024.736666,-6217.729913,-79980.369991
885.123461,-14359.995275,1628.453072,-79061.055394
885.125997,-3108.864956,740.205942,-76609.549800
885.128532,-5477.523971,2516.700203,-71859.757712
885.131068,2664.741391,-1924.535449,-73545.167808
885.133604,-6365.771101,-4885.359217,-76609.549800
885.136140,-8290.306550,-2516.700203,-77528.864398
885.138675,-21614.013506,1924.535449,-77375.645298
885.141211,8734.430116,1776.494261,-74464.482406
885.143747,-592.164754,-2220.617826,-72625.853210
885.146283,10066.800811,-1184.329507,-71706.538613
885.148818,9326.594869,6069.688724,-74004.825107
885.151354,1776.494261,9918.759623,-76609.549800
885.153890,3997.112087,4885.359217,-77069.207099
885.156426,-592.164754,9178.553681,-75383.797003
885.158961,11991.336260,6217.729913,-73851.606007
885.161497,148.041188,13767.830521,-73851.606007
885.164033,-592.164754,4293.194464,-75077.358804
885.166569,6069.688724,7254.018232,-75843.454302
885.169104,17172.777854,9622.677246,-76303.111601
885.171640,-3849.070898,6365.771101,-75996.673402
885.174176,-14063.912898,2960.823768,-75843.454302
885.176712,3108.864956,11251.130318,-72932.291410
885.179247,23538.548956,-7550.100608,-71553.319513
885.181783,7402.059420,-4885.359217,-76609.549800
885.184319,-5477.523971,2812.782580,-77835.302597
885.186855,888.247130,6217.729913,-76456.330700
885.189390,7402.059420,10807.006753,-72932.291410
885.191926,-2368.659014,17616.901420,-74770.920605
885.194462,17468.860231,740.205942,-74617.701505
885.196998,22354.219448,-9326.594869,-75690.235202
885.199533,17616.901420,4145.153275,-76456.330700
885.202081,1776.494261,-6661.853478,-74617.701505
885.204628,-8734.430116,-4589.276840,-74004.825107
885.207175,-2812.782580,-7698.141797,-74004.825107
885.209723,-17912.983796,6217.729913,-76456.330700
885.212270,-5773.606348,-4293.194464,-77222.426198
885.214817,-2072.576638,-10214.842000,-77375.645298
885.217365,4885.359217,-4293.194464,-75230.577904
885.219912,4145.153275,-2812.782580,-72932.291410
885.222459,3552.988522,-6365.771101,-72472.634111
885.225006,10214.842000,8142.265362,-74311.263306
885.227554,16728.654289,-3404.947333,-74464.482406
885.230101,3849.070898,6069.688724,-75996.673402
885.232648,-7698.141797,10066.800811,-77988.521696
885.235196,-6661.853478,2516.700203,-75077.358804
885.237743,-5921.647536,-2368.659014,-72625.853210
885.240290,3256.906145,-5181.441594,-72472.634111
885.242838,-3701.029710,-6513.812290,-75383.797003
885.245385,1924.535449,-16432.571912,-77222.426198
885.247932,-24278.754898,5329.482782,-79367.493593
885.250479,888.247130,5329.482782,-76609.549800
885.253027,-5181.441594,-296.082377,-73391.948708
885.255574,13027.624579,1924.535449,-70480.785816
885.258121,17172.777854,8586.388927,-73238.729609
885.260669,2664.741391,13175.665768,-76915.987999
885.263216,9178.553681,-10362.883188,-76609.549800
885.265763,-11103.089130,2812.782580,-75843.454302
885.268310,6513.812290,3849.070898,-73391.948708
885.270858,-4885.359217,6365.771101,-73085.510509
885.273405,6069.688724,-740.205942,-74617.701505
885.275952,-3701.029710,3108.864956,-76915.987999
885.278500,7846.182985,13323.706956,-75537.016103
885.281047,17912.983796,-8142.265362,-73085.510509
885.283594,12583.501014,-6365.771101,-71246.881314
885.286142,7254.018232,6365.771101,-73238.729609
885.288689,592.164754,3108.864956,-76303.111601
885.291236,-2664.741391,9178.553681,-77528.864398
885.293783,-2960.823768,4589.276840,-76762.768900
885.296331,3404.947333,8882.471304,-75230.577904
885.298878,6365.771101,9474.636058,-73238.729609
885.301425,12731.542202,-3404.947333,-73698.386908
885.303981,5181.441594,-5033.400406,-77375.645298
885.306537,16580.613101,888.247130,-78754.617194
885.309093,3256.906145,10214.842000,-77069.207099
885.311649,5625.565159,-4885.359217,-73851.606007
885.314205,4441.235652,-8142.265362,-73391.948708
885.316761,2664.741391,-1628.453072,-74158.044206
885.319317,-27683.702231,148.041188,-78294.959896
885.321873,-19985.560434,-888.247130,-79367.493593
885.324429,444.123565,-13175.665768,-78294.959896
885.326985,-148.041188,-2664.741391,-75690.235202
885.329541,3108.864956,-4145.153275,-73545.167808
885.332097,-444.123565,13915.871710,-72319.415011
885.334653,8734.430116,-740.205942,-73851.606007
885.337209,21021.848753,-11695.253884,-74004.825107
885.339765,-8586.388927,-8438.347739,-78448.178995
885.342321,-12139.377449,-1924.535449,-79980.369991
885.344877,-15544.324782,3552.988522,-77222.426198
885.347433,-1628.453072,148.041188,-69408.252119
885.349989,-296.082377,-5625.565159,-71400.100414
885.352545,-14952.160028,1332.370696,-76609.549800
885.355101,-29312.155303,-296.082377,-80899.684589
885.357657,1924.535449,-1480.411884,-78601.398095
885.360213,5773.606348,-6069.688724,-73698.386908
885.362769,2664.741391,1184.329507,-71553.319513
885.365325,296.082377,12731.542202,-73545.167808
885.367881,-888.247130,6957.935855,-75996.673402
885.370437,16136.489536,5477.523971,-76303.111601
885.372993,3849.070898,4737.318029,-76915.987999
885.375549,14656.077652,3997.112087,-75843.454302
885.378105,-7105.977043,10214.842000,-74311.263306
885.380661,1480.411884,4293.194464,-72472.634111
885.383217,4145.153275,6217.729913,-75077.358804
885.385773,12287.418637,10362.883188,-77222.426198
885.388329,-7254.018232,13471.748144,-78141.740796
885.390885,10362.883188,4737.318029,-75690.235202
885.393441,-444.123565,9770.718434,-73545.167808
885.395997,-296.082377,6365.771101,-75843.454302
885.398553,-9326.594869,6513.812290,-77069.207099
885.401109,5773.606348,-296.082377,-75537.016103
885.403665,14804.118840,740.205942,-75230.577904
885.406228,6069.688724,-2072.576638,-74004.825107
885.408791,3701.029710,2072.576638,-74004.825107
885.411355,-2220.617826,3552.988522,-74924.139704
885.413918,10807.006753,6661.853478,-77222.426198
885.416481,-1628.453072,7994.224174,-77988.521696
885.419045,-592.164754,-6365.771101,-75537.016103
885.421608,6513.812290,-10955.047942,-74158.044206
885.424171,-3108.864956,-4737.318029,-72932.291410
885.426735,-22354.219448,-4737.318029,-75843.454302
885.429298,-24130.713709,-1184.329507,-77222.426198
885.431862,-1332.370696,-13323.706956,-78141.740796
885.434425,3256.906145,-2812.782580,-76915.987999
885.436988,3404.947333,-2220.617826,-74770.920605
885.439552,-296.082377,-3256.906145,-73238.729609
885.442115,-7994.224174,6513.812290,-74770.920605
885.444678,2812.782580,10066.800811,-75383.797003
885.447242,-15396.283594,-1036.288319,-79673.931792
885.449805,2368.659014,-4737.318029,-78754.617194
885.452368,-2220.617826,-2812.782580,-73851.606007
885.454932,-2072.576638,-3404.947333,-71553.319513
885.457495,-12139.377449,-1480.411884,-72472.634111
885.460059,-2368.659014,-12435.459826,-75077.358804
885.462622,-21021.848753,148.041188,-79827.150892
885.465185,3552.988522,3108.864956,-79061.055394
885.467749,-3108.864956,-2516.700203,-76303.111601
885.470312,20873.807564,-2664.741391,-70021.128517
885.472875,18061.024985,9326.594869,-71859.757712
885.475439,1628.453072,12435.459826,-74158.044206
885.478002,9770.718434,-7402.059420,-78448.178995
885.480565,-10214.842000,3552.988522,-79673.931792
885.483129,11695.253884,-296.082377,-75843.454302
885.485692,-10510.924376,8734.430116,-73391.948708
885.488256,-2072.576638,1480.411884,-73851.606007
885.490819,-1776.494261,4441.235652,-75077.358804
885.493382,19245.354492,5181.441594,-73851.606007
885.495946,21317.931130,-16580.613101,-75537.016103
885.498509,3552.988522,5921.647536,-76303.111601
885.501072,-22798.343014,21614.013506,-77528.864398
885.503636,-7550.100608,23242.466579,-75077.358804
885.506199,14211.954086,5477.523971,-71246.881314
885.508768,21317.931130,3849.070898,-72625.853210
885.511338,15100.201217,-1184.329507,-75690.235202
885.513907,-9474.636058,7698.141797,-77835.302597
885.516477,1480.411884,6513.812290,-73698.386908
885.519046,26203.290347,1332.370696,-72012.976812
885.521615,11399.171507,2072.576638,-75690.235202
885.524185,6069.688724,-7846.182985,-77528.864398
885.526754,-148.041188,-13619.789333,-76609.549800
885.529323,9178.553681,-2072.576638,-74464.482406
885.531893,-24426.796086,7402.059420,-75843.454302
885.534462,-8882.471304,-3552.988522,-74924.139704
885.537031,-18505.148550,-7402.059420,-76303.111601
885.539601,5033.400406,-6217.729913,-76149.892501
885.542170,6217.729913,-4589.276840,-76149.892501
885.544740,-148.041188,-1332.370696,-74924.139704
885.547309,-4441.235652,-4737.318029,-74158.044206
885.549878,-14656.077652,7402.059420,-77222.426198
885.552448,-15100.201217,-1776.494261,-77375.645298
885.555017,-13619.789333,1776.494261,-80593.246390
885.557586,-740.205942,-6513.812290,-78141.740796
885.560156,-2368.659014,-1924.535449,-74924.139704
885.562725,-6217.729913,-3404.947333,-72625.853210
885.565295,-9770.718434,2072.576638,-72932.291410
885.567864,-13027.624579,-3552.988522,-76149.892501
885.570433,14359.995275,-3849.070898,-79061.055394
885.573003,-888.247130,-6661.853478,-77988.521696
885.575572,10807.006753,-5477.523971,-74158.044206
885.578141,-296.082377,13915.871710,-72779.072310
885.580711,10066.800811,8734.430116,-72166.195912
885.583280,3404.947333,7105.977043,-74158.044206
885.585850,20873.807564,3701.029710,-75843.454302
885.588419,17764.942608,-592.164754,-76915.987999
885.590993,4145.153275,7402.059420,-75537.016103
885.593566,-7846.182985,4737.318029,-73545.167808
885.596140,5773.606348,6661.853478,-71859.757712
885.598714,7105.977043,6809.894666,-73851.606007
885.601287,12287.418637,592.164754,-74924.139704
885.603861,11695.253884,-3552.988522,-76303.111601
885.606435,13175.665768,7105.977043,-74464.482406
885.609008,3552.988522,6809.894666,-73238.729609
885.611582,740.205942,4885.359217,-75077.358804
885.614156,444.123565,5477.523971,-74464.482406
885.616729,10362.883188,3997.112087,-76149.892501
885.619303,592.164754,14656.077652,-75996.673402
885.621877,8734.430116,1628.453072,-73851.606007
885.624450,13323.706956,-3404.947333,-74004.825107
885.627024,11103.089130,2812.782580,-75383.797003
885.629598,-3552.988522,3997.112087,-75996.673402
885.632171,-10066.800811,-5033.400406,-76456.330700
885.634745,8586.388927,-6809.894666,-75843.454302
885.637319,-10658.965565,3997.112087,-74770.920605
885.639893,-6809.894666,-3849.070898,-74464.482406
885.642466,-20281.642811,-6513.812290,-76609.549800
885.645040,-1332.370696,-8586.388927,-76609.549800
885.647614,3552.988522,-4441.235652,-76303.111601
885.650187,3552.988522,-9326.594869,-75996.673402
885.652761,7550.100608,-10214.842000,-74004.825107
885.655335,4737.318029,-4885.359217,-74924.139704
885.657908,-15544.324782,13619.789333,-76915.987999
885.660482,-296.082377,-8586.388927,-77528.864398
885.663056,2516.700203,-2812.782580,-77375.645298
885.665629,9030.512492,-5921.647536,-73698.386908
885.668203,-8882.471304,-4885.359217,-72625.853210
885.670777,-12583.501014,-7698.141797,-75230.577904
885.673350,-21762.054695,-3849.070898,-77988.521696
885.675924,8290.306550,0.000000,-77835.302597
885.678498,-6809.894666,-1480.411884,-78141.740796
885.681071,7105.977043,-3404.947333,-74617.701505
885.683645,12287.418637,6365.771101,-72779.072310
885.686219,5033.400406,13915.871710,-71706.538613
885.688792,1628.453072,9326.594869,-73545.167808
885.691366,11399.171507,6217.729913,-75383.797003
885.693943,17468.860231,2664.741391,-77069.207099
885.696520,-4441.235652,9030.512492,-74924.139704
885.699097,-2960.823768,3552.988522,-73545.167808
885.701674,3701.029710,2220.617826,-72472.634111
885.704251,16728.654289,-8734.430116,-71400.100414
885.706828,9178.553681,-14804.118840,-76303.111601
885.709405,-8142.265362,-16876.695478,-79367.493593
885.711982,-19689.478057,7402.059420,-79980.369991
885.714559,-10510.924376,12139.377449,-76149.892501
885.717136,-740.205942,9178.553681,-73391.948708
885.719712,5625.565159,8142.265362,-73238.729609
885.722289,8142.265362,2368.659014,-76303.111601
885.724866,3404.947333,4589.276840,-77682.083497
885.727443,-2516.700203,3404.947333,-77682.083497
885.730020,6809.894666,4441.235652,-76915.987999
885.732597,21021.848753,5033.400406,-73391.948708
885.735174,6513.812290,-5329.482782,-73238.729609
885.737751,6069.688724,-5181.441594,-74158.044206
885.740328,-2220.617826,-5921.647536,-76456.330700
885.742905,-18653.189738,5921.647536,-77375.645298
885.745482,-14508.036463,-1480.411884,-76609.549800
885.748059,-3552.988522,-8438.347739,-75383.797003
885.750636,-296.082377,-3701.029710,-75690.235202
885.753213,3701.029710,-888.247130,-75996.673402
885.755790,-148.041188,-5773.606348,-73851.606007
885.758367,17764.942608,-23242.466579,-74158.044206
885.760943,-14656.077652,7550.100608,-78754.617194
885.763520,-48705.550984,22798.343014,-82278.656485
885.766097,-7698.141797,2220.617826,-77682.083497
885.768674,21465.972318,-14508.036463,-72932.291410
885.771251,-592.164754,-10510.924376,-74464.482406
885.773828,-29608.237680,3552.988522,-74464.482406
885.776405,4589.276840,-9770.718434,-72932.291410
885.778982,8882.471304,-1776.494261,-74004.825107
885.781559,-9918.759623,5625.565159,-79367.493593
885.784136,-16136.489536,592.164754,-79520.712692
885.786713,10658.965565,12583.501014,-76915.987999
885.789290,28275.866984,2664.741391,-71706.538613
885.791867,8734.430116,4885.359217,-70940.443115
885.794444,9474.636058,-2516.700203,-75383.797003
885.797023,-1184.329507,-3404.947333,-78601.398095
885.799601,8586.388927,2072.576638,-76762.768900
885.802180,-4589.276840,3256.906145,-74617.701505
885.804759,-3997.112087,10955.047942,-75077.358804
885.807338,1332.370696,-148.041188,-74311.263306
885.809917,16284.530724,-3256.906145,-74158.044206
885.812495,-7698.141797,-7994.224174,-77835.302597
885.815074,1776.494261,740.205942,-77835.302597
885.817653,7994.224174,13915.871710,-75843.454302
885.820232,9326.594869,4293.194464,-73391.948708
885.822811,3256.906145,4293.194464,-73085.510509
885.825389,6809.894666,740.205942,-74770.920605
885.827968,1184.329507,9918.759623,-77069.207099
885.830547,1184.329507,5625.565159,-76915.987999
885.833126,14508.036463,3701.029710,-76149.892501
885.835705,21762.054695,3997.112087,-74770.920605
885.838283,10658.965565,-9918.759623,-73085.510509
885.840862,-6661.853478,-11991.336260,-74158.044206
885.843441,-2368.659014,-4293.194464,-75996.673402
885.846020,-21169.889941,4885.359217,-77069.207099
885.848599,888.247130,-1332.370696,-76762.768900
885.851177,-10807.006753,-7550.100608,-76303.111601
885.853756,-444.123565,-888.247130,-74924.139704
885.856335,2516.700203,-4293.194464,-75690.235202
885.858914,3404.947333,1924.535449,-73238.729609
885.861493,7550.100608,-4737.318029,-73085.510509
885.864071,17616.901420,-15544.324782,-73085.510509
885.866650,888.247130,-6217.729913,-76149.892501
885.869229,-12139.377449,-7994.224174,-79673.931792
885.871808,-11399.171507,-3256.906145,-77835.302597
885.874387,-296.082377,-148.041188,-74770.920605
885.876965,-10658.965565,592.164754,-72472.634111
885.879544,-13619.789333,5329.482782,-73238.729609
885.882123,8438.347739,-7105.977043,-76149.892501
885.884702,6513.812290,-6661.853478,-77222.426198
885.887281,-2516.700203,-10510.924376,-78141.740796
885.889859,-2960.823768,14063.912898,-76303.111601
885.892438,17172.777854,6217.729913,-73698.386908
885.895017,6661.853478,7994.224174,-72625.853210
885.897596,14656.077652,-9770.718434,-74311.263306
885.900176,-5181.441594,-1480.411884,-78754.617194
885.902756,1184.329507,5329.482782,-78754.617194
885.905337,-296.082377,2516.700203,-75996.673402
885.907917,5921.647536,4589.276840,-73545.167808
885.910497,-2072.576638,-2220.617826,-75230.577904
885.913077,-18061.024985,14359.995275,-77835.302597
885.915658,-6069.688724,-10362.883188,-78754.617194
885.918238,7846.182985,-4737.318029,-75230.577904
885.920818,6513.812290,-3701.029710,-76303.111601
885.923398,-16432.571912,8882.471304,-77222.426198
885.925979,-7402.059420,8734.430116,-74924.139704
885.928559,14063.912898,3552.988522,-72012.976812
885.931139,9030.512492,6365.771101,-74311.263306
885.933719,-2664.741391,6809.894666,-78448.178995
885.936300,12139.377449,1480.411884,-77222.426198
885.938880,29756.278868,592.164754,-73545.167808
885.941460,17024.736666,-9474.636058,-70940.443115
885.944040,-1628.453072,-4441.235652,-73391.948708
885.946621,-6069.688724,-5477.523971,-76915.987999
885.949201,-24574.837274,2220.617826,-78754.617194
885.951781,-5181.441594,148.041188,-76609.549800
885.954361,-13915.871710,1628.453072,-76915.987999
885.956942,-3256.906145,-1332.370696,-74617.701505
885.959522,6809.894666,-6069.688724,-73545.167808
885.962102,9622.677246,-14952.160028,-71706.538613
885.964682,2812.782580,-2368.659014,-75230.577904
885.967263,-10362.883188,1332.370696,-78601.398095
885.969843,-14359.995275,2812.782580,-78601.398095
885.972423,-2368.659014,-2812.782580,-78294.959896
885.975003,-7550.100608,-2072.576638,-76762.768900
885.977584,-4293.194464,-1332.370696,-72779.072310
885.980164,-2516.700203,-4145.153275,-73238.729609
885.982744,-35677.926404,2072.576638,-77988.521696
885.985324,4441.235652,-1332.370696,-77988.521696
885.987905,-1036.288319,-13027.624579,-77375.645298
885.990485,6809.894666,-6513.812290,-75843.454302
885.993065,-7105.977043,15396.283594,-76303.111601
885.995645,6809.894666,14656.077652,-73851.606007
885.998226,10066.800811,6217.729913,-72472.634111
886.000806,17320.819043,5181.441594,-72472.634111
886.003353,12731.542202,3404.947333,-76915.987999
886.005900,-6365.771101,10658.965565,-77528.864398
886.008447,-1332.370696,-1924.535449,-76303.111601
886.010994,6513.812290,10362.883188,-72932.291410
886.013541,2368.659014,6365.771101,-74924.139704
886.016088,-3256.906145,6513.812290,-76303.111601
886.018635,16876.695478,-8586.388927,-72932.291410
886.021182,9918.759623,740.205942,-76149.892501
886.023729,-4885.359217,7402.059420,-78294.959896
886.026276,-9474.636058,11695.253884,-76609.549800
886.028823,9622.677246,3552.988522,-72932.291410
886.031370,14952.160028,9030.512492,-71553.319513
886.033917,10066.800811,-3849.070898,-74770.920605
886.036464,14952.160028,-740.205942,-76456.330700
886.039011,25463.084405,888.247130,-75383.797003
886.041558,9474.636058,-3256.906145,-73851.606007
886.044105,-11103.089130,-10658.965565,-73391.948708
886.046652,3256.906145,-7846.182985,-73391.948708
886.049199,-14359.995275,296.082377,-75690.235202
886.051746,0.000000,-4145.153275,-76456.330700
886.054293,-24870.919651,-444.123565,-78141.740796
886.056840,-2812.782580,-6661.853478,-76303.111601
886.059388,-592.164754,-7105.977043,-74004.825107
886.061935,5773.606348,-7994.224174,-71859.757712
886.064482,4145.153275,-2072.576638,-73238.729609
886.067029,14063.912898,-2220.617826,-72012.976812
886.069576,21169.889941,-14359.995275,-75077.358804
886.072123,2368.659014,-10214.842000,-77222.426198
886.074670,-8882.471304,-6365.771101,-78141.740796
886.077217,-2664.741391,-2072.576638,-72932.291410
886.079764,-1480.411884,1924.535449,-72472.634111
886.082311,-25463.084405,5477.523971,-73698.386908
886.084858,2072.576638,-3997.112087,-76456.330700
886.087405,3997.112087,-5625.565159,-77222.426198
886.089952,5477.523971,-14952.160028,-76915.987999
886.092499,-3997.112087,14063.912898,-75996.673402
886.095046,12139.377449,6069.688724,-73851.606007
886.097593,6661.853478,9622.677246,-72779.072310
886.100140,14359.995275,3997.112087,-72932.291410
886.102687,20429.683999,-2664.741391,-75843.454302
886.105242,-3701.029710,9918.759623,-78601.398095
886.107796,-3701.029710,888.247130,-77375.645298
886.110351,3552.988522,3552.988522,-73545.167808
886.112905,9178.553681,-8882.471304,-72319.415011
886.115460,-8882.471304,7402.059420,-75996.673402
886.118015,-19393.395680,8438.347739,-77375.645298
886.120569,17912.983796,1332.370696,-73851.606007
886.123124,32569.061448,0.000000,-71246.881314
886.125678,18061.024985,3256.906145,-71553.319513
886.128233,-2516.700203,0.000000,-73391.948708
886.130788,-12583.501014,7105.977043,-77222.426198
886.133342,9918.759623,3552.988522,-75077.358804
886.135897,19393.395680,4737.318029,-75383.797003
886.138451,13915.871710,8142.265362,-76915.987999
886.141006,3552.988522,-4885.359217,-75690.235202
886.143561,1628.453072,-12879.583391,-73085.510509
886.146115,1184.329507,-3701.029710,-72472.634111
886.148670,-17468.860231,148.041188,-76456.330700
886.151224,-8734.430116,-2220.617826,-77835.302597
886.153779,-19689.478057,-592.164754,-79367.493593
886.156334,-3552.988522,-4885.359217,-76915.987999
886.158888,3552.988522,-3997.112087,-74158.044206
886.161443,3108.864956,-12879.583391,-73085.510509
886.163997,-3108.864956,4589.276840,-74617.701505
886.166552,-6513.812290,3701.029710,-78141.740796
886.169106,-8290.306550,3701.029710,-78141.740796
886.171661,-4589.276840,-3108.864956,-78907.836294
886.174216,-8142.265362,-2368.659014,-75690.235202
886.176770,-4589.276840,-8586.388927,-73085.510509
886.179325,-2368.659014,-2960.823768,-73085.510509
886.181879,-30348.443622,4441.235652,-75077.358804
886.184434,4885.359217,1332.370696,-76303.111601
886.186989,-1628.453072,-9326.594869,-77835.302597
886.189543,12731.542202,-296.082377,-74464.482406
886.192098,14656.077652,11251.130318,-73238.729609
886.194652,-592.164754,18061.024985,-73238.729609
886.197207,10510.924376,7254.018232,-74004.825107
886.199762,7254.018232,6513.812290,-74464.482406
886.202316,23982.672521,-2812.782580,-74770.920605
886.204871,-3997.112087,7698.141797,-77835.302597
886.207431,-3404.947333,-296.082377,-77375.645298
886.209992,1924.535449,10066.800811,-74464.482406
886.212553,3997.112087,7698.141797,-74311.263306
886.215114,-5921.647536,6217.729913,-75996.673402
886.217675,16876.695478,-2812.782580,-72932.291410
886.220236,17912.983796,3849.070898,-73698.386908
886.222797,19837.519246,2812.782580,-73851.606007
886.225357,-7105.977043,8290.306550,-76456.330700
886.227918,-3701.029710,5033.400406,-75383.797003
886.230479,12731.542202,6513.812290,-72932.291410
886.233040,1924.535449,7550.100608,-75383.797003
886.235601,4293.194464,2812.782580,-78754.617194
886.238162,25167.002028,6069.688724,-75690.235202
886.240723,18505.148550,-7105.977043,-72012.976812
886.243284,8734.430116,-10214.842000,-71400.100414
886.245845,-1776.494261,-9622.677246,-73391.948708
886.248405,-23094.425390,2368.659014,-77528.864398
886.250966,-17616.901420,0.000000,-77682.083497
886.253527,2072.576638,-9918.759623,-76303.111601
886.256088,444.123565,-3701.029710,-74158.044206
886.258649,1332.370696,-444.123565,-74464.482406
886.261210,-2516.700203,-4737.318029,-71859.757712
886.263771,-5773.606348,3997.112087,-75996.673402
886.266332,-14063.912898,12879.583391,-78294.959896
886.268893,-15396.283594,14211.954086,-79673.931792
886.271453,-148.041188,-3701.029710,-76915.987999
886.274014,1480.411884,-12287.418637,-74311.263306
886.276575,-8586.388927,-6957.935855,-72932.291410
886.279136,4589.276840,-8290.306550,-70327.566716
886.281697,8734.430116,-6661.853478,-75077.358804
886.284258,4293.194464,-3701.029710,-78754.617194
886.286819,-4885.359217,-13619.789333,-79673.931792
886.289380,-5033.400406,14952.160028,-76762.768900
886.291941,18357.107362,6217.729913,-72779.072310
886.294501,10658.965565,10362.883188,-71553.319513
886.297062,17616.901420,-9622.677246,-74004.825107
886.299623,-4737.318029,1480.411884,-78907.836294
886.302184,1628.453072,2368.659014,-78907.836294
886.304745,4145.153275,1036.288319,-76456.330700
886.307306,2072.576638,7846.182985,-75077.358804
886.309871,-5329.482782,-8586.388927,-71859.757712
886.312436,-1332.370696,4885.359217,-76609.549800
886.315001,-27979.784608,12583.501014,-80133.589091
886.317567,6217.729913,11103.089130,-75690.235202
886.320132,29904.320057,6513.812290,-71859.757712
886.322697,14063.912898,2516.700203,-73085.510509
886.325262,-10510.924376,2072.576638,-75996.673402
886.327828,-7402.059420,12879.583391,-74158.044206
886.330393,13767.830521,9770.718434,-72166.195912
886.332958,13915.871710,4737.318029,-75537.016103
886.335523,17764.942608,3552.988522,-77528.864398
886.338088,8438.347739,-5625.565159,-75996.673402
886.340654,4589.276840,-12879.583391,-72472.634111
886.343219,6661.853478,-7994.224174,-72166.195912
886.345784,-24722.878463,7846.182985,-76303.111601
886.348349,-8734.430116,-2960.823768,-77682.083497
886.350914,-11695.253884,-4293.194464,-78754.617194
886.353480,296.082377,-7105.977043,-77222.426198
886.356045,4293.194464,-10510.924376,-75230.577904
886.358610,296.082377,-9030.512492,-71246.881314
886.361175,2072.576638,-5033.400406,-73851.606007
886.363741,-1924.535449,-3997.112087,-75537.016103
886.366306,-2664.741391,-4589.276840,-79061.055394
886.368871,0.000000,-11251.130318,-79827.150892
886.371436,-7698.141797,-7105.977043,-75537.016103
886.374001,-8586.388927,1776.494261,-72472.634111
886.376567,-3552.988522,2812.782580,-71706.538613
886.379132,4441.235652,-3849.070898,-73545.167808
886.381697,-444.123565,1924.535449,-78294.959896
886.384262,-2516.700203,-11547.212695,-79214.274493
886.386827,6661.853478,8438.347739,-76149.892501
886.389393,19245.354492,9622.677246,-72166.195912
886.391958,6661.853478,10510.924376,-71400.100414
886.394523,10955.047942,-8142.265362,-74158.044206
886.397088,-5181.441594,1480.411884,-78294.959896
886.399654,0.000000,3701.029710,-79061.055394
886.402219,-1776.494261,5773.606348,-77069.207099
886.404784,6069.688724,9178.553681,-73238.729609
886.407349,-2368.659014,10510.924376,-73698.386908
886.409914,888.247130,11103.089130,-73391.948708
886.412483,19689.478057,-10066.800811,-72779.072310
886.415052,6217.729913,1184.329507,-77835.302597
886.417621,-4737.318029,8586.388927,-79061.055394
886.420190,-4145.153275,12583.501014,-76456.330700
886.422759,8438.347739,2072.576638,-71859.757712
886.425328,7105.977043,7402.059420,-73085.510509
886.427897,-5033.400406,5477.523971,-77069.207099
886.430466,14063.912898,6957.935855,-76303.111601
886.433035,31236.690752,3552.988522,-75843.454302
886.435604,17468.860231,-6513.812290,-72472.634111
886.438172,-4145.153275,-6069.688724,-73391.948708
886.440741,-7105.977043,-7254.018232,-75690.235202
886.443310,-21910.095883,5773.606348,-75690.235202
886.445879,5773.606348,-3849.070898,-74617.701505
886.448448,-12583.501014,-3108.864956,-78448.178995
886.451017,-6069.688724,-2664.741391,-77835.302597
886.453586,3701.029710,-8586.388927,-74770.920605
886.456155,2812.782580,-10362.883188,-70634.004916
886.458724,-5033.400406,5625.565159,-74464.482406
886.461293,-17616.901420,13915.871710,-77835.302597
886.463862,-12287.418637,12879.583391,-79214.274493
886.466430,-11399.171507,-1480.411884,-79367.493593
886.468999,-5033.400406,-6513.812290,-75077.358804
886.471568,-11843.295072,-2664.741391,-73238.729609
886.474137,-23390.507767,2072.576638,-73545.167808
886.476706,4737.318029,-1776.494261,-74617.701505
886.479275,3552.988522,-7550.100608,-77682.083497
886.481844,-4441.235652,-11547.212695,-79827.150892
886.484413,-1332.370696,10807.006753,-78448.178995
886.486982,7698.141797,7105.977043,-74311.263306
886.489551,11695.253884,5033.400406,-71246.881314
886.492120,16876.695478,-4589.276840,-72166.195912
886.494688,7846.182985,-1628.453072,-76915.987999
886.497257,-5773.606348,10362.883188,-79980.369991
886.499826,-296.082377,4293.194464,-77988.521696
886.502395,7550.100608,14508.036463,-72779.072310
886.504964,10362.883188,10066.800811,-71400.100414
886.507533,25315.043216,-5625.565159,-72012.976812
886.510102,0.000000,5033.400406,-75537.016103
886.512671,-16876.695478,15396.283594,-81818.999186
886.515242,-5181.441594,15840.407159,-78601.398095
886.517813,11843.295072,6957.935855,-72319.415011
886.520385,6661.853478,-3256.906145,-70480.785816
886.522956,5921.647536,-6217.729913,-72779.072310
886.525527,2368.659014,-4737.318029,-74311.263306
886.528098,21762.054695,1480.411884,-76609.549800
886.530669,6661.853478,1480.411884,-75996.673402
886.533241,-2664.741391,-10658.965565,-73391.948708
886.535812,1332.370696,-7550.100608,-71553.319513
886.538383,-14804.118840,-5477.523971,-72779.072310
886.540954,-18653.189738,-1332.370696,-75077.358804
886.543526,-26647.413912,7846.182985,-78754.617194
886.546097,148.041188,-5625.565159,-78754.617194
886.548668,7105.977043,-7846.182985,-76456.330700
886.551239,6365.771101,-11843.295072,-74158.044206
886.553810,-9474.636058,7994.224174,-73851.606007
886.556382,-5181.441594,7402.059420,-76303.111601
886.558953,-7994.224174,740.205942,-79980.369991
886.561524,296.082377,-5477.523971,-81818.999186
886.564095,-8290.306550,-6365.771101,-79980.369991
886.566667,-2368.659014,-5181.441594,-74004.825107
886.569238,5773.606348,-3997.112087,-70021.128517
886.571809,-3849.070898,-4737.318029,-73085.510509
886.574380,-3108.864956,2368.659014,-77682.083497
886.576951,-5625.565159,-10214.842000,-81052.903688
886.579523,4293.194464,6513.812290,-77375.645298
886.582094,21762.054695,10362.883188,-73545.167808
886.584665,-888.247130,14508.036463,-71553.319513
886.587236,6217.729913,1480.411884,-72166.195912
886.589808,-4441.235652,2960.823768,-77069.207099
886.592379,-6365.771101,8438.347739,-79520.712692
886.594950,0.000000,4145.153275,-77528.864398
886.597521,8290.306550,10510.924376,-74158.044206
886.600093,-10658.965565,13471.748144,-73851.606007
886.602664,-11399.171507,14656.077652,-73698.386908
886.605235,17172.777854,-10214.842000,-71553.319513
886.607806,10362.883188,-1332.370696,-75996.673402
886.610377,-7994.224174,10658.965565,-80286.808190
886.612949,-9474.636058,15544.324782,-76762.768900
886.615520,8438.347739,-1776.494261,-71859.757712
886.618093,15248.242405,-2664.741391,-68948.594820
886.620666,8734.430116,-4589.276840,-72012.976812
886.623240,1924.535449,2072.576638,-79673.931792
886.625813,21910.095883,6513.812290,-77375.645298
886.628386,5181.441594,-1184.329507,-75230.577904
886.630960,6365.771101,-1036.288319,-73391.948708
886.633533,-3849.070898,-8734.430116,-74464.482406
886.636106,-15100.201217,1036.288319,-76456.330700
886.638680,-12583.501014,-1184.329507,-76762.768900
886.641253,4293.194464,-8290.306550,-78448.178995
886.643826,-296.082377,-6365.771101,-78601.398095
886.646399,2812.782580,888.247130,-75996.673402
886.648973,3404.947333,-1332.370696,-71859.757712
886.651546,6957.935855,9030.512492,-71706.538613
886.654119,19393.395680,-12583.501014,-74770.920605
886.656693,11103.089130,-13471.748144,-78601.398095
886.659266,-9770.718434,-11251.130318,-81052.903688
886.661839,-15692.365970,444.123565,-76609.549800
886.664413,3701.029710,-3701.029710,-70174.347617
886.666986,-8734.430116,148.041188,-70174.347617
886.669559,-6957.935855,-2960.823768,-75077.358804
886.672132,-7994.224174,-10807.006753,-78754.617194
886.674706,4293.194464,3701.029710,-77222.426198
886.677279,35085.761651,7846.182985,-73698.386908
886.679852,-3552.988522,18801.230927,-70021.128517
886.682426,16580.613101,-3849.070898,-70327.566716
886.684999,-16728.654289,2220.617826,-75537.016103
886.687572,5921.647536,1776.494261,-77069.207099
886.690146,3997.112087,1184.329507,-76762.768900
886.692719,1332.370696,8290.306550,-76762.768900
886.695292,592.164754,11991.336260,-73698.386908
886.697865,27239.578666,6365.771101,-68642.156621
886.700439,14211.954086,-592.164754,-71553.319513
886.703012,12287.418637,14211.954086,-75996.673402
886.705585,10807.006753,15544.324782,-78601.398095
886.708159,12287.418637,11991.336260,-77835.302597
886.710732,5033.400406,1332.370696,-73851.606007
886.713305,16432.571912,-7254.018232,-70327.566716
886.715879,11695.253884,-8586.388927,-72932.291410
886.718452,9770.718434,3404.947333,-78141.740796
886.721026,7105.977043,7254.018232,-79673.931792
886.723600,-1036.288319,-7254.018232,-77222.426198
886.726174,9770.718434,-8882.471304,-74004.825107
886.728748,-16580.613101,-4885.359217,-73851.606007
886.731323,-26351.331535,1036.288319,-75996.673402
886.733897,-28423.908173,2812.782580,-77222.426198
886.736471,1776.494261,-6217.729913,-77835.302597
886.739045,4145.153275,-6661.853478,-78448.178995
886.741619,2072.576638,-7846.182985,-75690.235202
886.744193,13767.830521,-20133.601622,-69101.813920
886.746767,19393.395680,-28127.825796,-70634.004916
886.749341,-10066.800811,-5181.441594,-79980.369991
886.751916,-25167.002028,4441.235652,-84730.162079
886.754490,-13027.624579,4885.359217,-80440.027290
886.757064,1776.494261,4737.318029,-74770.920605
886.759638,-24426.796086,8586.388927,-72012.976812
886.762212,7550.100608,-6217.729913,-71246.881314
886.764786,7698.141797,-6365.771101,-73545.167808
886.767360,4589.276840,-16284.530724,-78448.178995
886.769935,-6069.688724,13323.706956,-79367.493593
886.772509,13027.624579,5773.606348,-74311.263306
886.775083,9918.759623,7846.182985,-69867.909418
886.777657,21762.054695,-2220.617826,-66803.527426
886.780231,17172.777854,-7254.018232,-72625.853210
886.782805,-12139.377449,10066.800811,-80593.246390
886.785379,-2664.741391,5329.482782,-81359.341888
886.787953,15988.448347,8438.347739,-73851.606007
886.790528,18061.024985,-3552.988522,-70940.443115
886.793102,-10510.924376,7698.141797,-72319.415011
886.795676,-6365.771101,2220.617826,-74924.139704
886.798250,11103.089130,6661.853478,-76915.987999
886.800824,15988.448347,7550.100608,-78907.836294
886.803398,-740.205942,10807.006753,-79061.055394
886.805972,-3552.988522,3108.864956,-74464.482406
886.808547,-6513.812290,1628.453072,-74158.044206
886.811121,3108.864956,-148.041188,-75077.358804
886.813695,22798.343014,4293.194464,-76915.987999
886.816269,3849.070898,-4145.153275,-78754.617194
886.818843,7254.018232,-11991.336260,-75843.454302
886.821417,11399.171507,-11843.295072,-72472.634111
886.823992,-15988.448347,-1184.329507,-71246.881314
886.826567,-7105.977043,-2516.700203,-74004.825107
886.829142,-18653.189738,-3108.864956,-79367.493593
886.831716,-3256.906145,-3108.864956,-79673.931792
886.834291,5181.441594,-9474.636058,-78141.740796
886.836866,11695.253884,444.123565,-71246.881314
886.839441,14952.160028,-13175.665768,-68488.937521
886.842015,8142.265362,-5921.647536,-72472.634111
886.844590,-9178.553681,-1036.288319,-80440.027290
886.847165,-12731.542202,1924.535449,-81972.218286
886.849740,-3997.112087,2960.823768,-78141.740796
886.852315,2664.741391,-11695.253884,-71093.662214
886.854889,-10214.842000,-3404.947333,-69561.471218
886.857464,-4293.194464,-4589.276840,-72319.415011
886.860039,-4737.318029,-6513.812290,-76456.330700
886.862614,6365.771101,3552.988522,-77222.426198
886.865188,32124.937883,10510.924376,-75690.235202
886.867763,3849.070898,13471.748144,-70634.004916
886.870338,13619.789333,888.247130,-69561.471218
886.872913,-17912.983796,6365.771101,-74464.482406
886.875487,5181.441594,4885.359217,-77222.426198
886.878062,5921.647536,2812.782580,-78294.959896
886.880637,4885.359217,14508.036463,-78141.740796
886.883212,-5625.565159,13471.748144,-76149.892501
886.885787,10955.047942,15396.283594,-69561.471218
886.888361,24130.713709,-3701.029710,-68029.280222
886.890936,24426.796086,1184.329507,-72472.634111
886.893511,8586.388927,8586.388927,-79980.369991
886.896086,-1628.453072,11695.253884,-81359.341888
886.898660,4441.235652,11103.089130,-77528.864398
886.901235,7105.977043,4293.194464,-70787.224015
886.903810,11251.130318,1036.288319,-71246.881314
886.906385,16284.530724,740.205942,-75996.673402
886.908960,10214.842000,-4441.235652,-78907.836294
886.911534,-4293.194464,-10066.800811,-78754.617194
886.914109,8882.471304,-5477.523971,-74924.139704
886.916684,-17320.819043,-5181.441594,-74004.825107
886.919259,-11103.089130,-1184.329507,-73698.386908
886.921833,-29756.278868,5625.565159,-77375.645298
886.924408,740.205942,-3552.988522,-79214.274493
886.926984,4441.235652,-3108.864956,-77682.083497
886.929560,1628.453072,-8438.347739,-75230.577904
886.932135,-11695.253884,6513.812290,-71859.757712
886.934711,-2220.617826,1776.494261,-71706.538613
886.937286,1332.370696,-10510.924376,-73698.386908
886.939862,1332.370696,-15840.407159,-79061.055394
886.942438,-14656.077652,-6365.771101,-79827.150892
886.945013,6365.771101,-14211.954086,-72932.291410
886.947589,-6661.853478,-296.082377,-70327.566716
886.950165,-15100.201217,8438.347739,-71706.538613
886.952740,-12287.418637,-3108.864956,-75996.673402
886.955316,12731.542202,-3108.864956,-76915.987999
886.957892,40267.203245,3552.988522,-76149.892501
886.960467,-6513.812290,17468.860231,-76915.987999
886.963043,6661.853478,5033.400406,-72472.634111
886.965619,-18357.107362,8586.388927,-74617.701505
886.968194,13915.871710,3256.906145,-74924.139704
886.970770,5773.606348,1924.535449,-77682.083497
886.973345,-888.247130,4737.318029,-81206.122788
886.975921,8734.430116,-13027.624579,-77375.645298
886.978497,7105.977043,-17912.983796,-72932.291410
886.981072,-29312.155303,-5625.565159,-76456.330700
886.983648,-37010.297100,13323.706956,-79520.712692
886.986224,2664.741391,10807.006753,-77988.521696
886.988799,27387.619854,3404.947333,-74311.263306
886.991375,3256.906145,9918.759623,-73545.167808
886.993951,592.164754,1184.329507,-72472.634111
886.996526,-6513.812290,-6069.688724,-73391.948708
886.999102,29904.320057,1184.329507,-72166.195912
887.001678,3849.070898,1776.494261,-75690.235202
887.004253,2812.782580,-5329.482782,-77835.302597
887.006829,7994.224174,-13323.706956,-77222.426198
887.009404,-11251.130318,-6217.729913,-73545.167808
887.011980,-15544.324782,444.123565,-73238.729609
887.014556,-27091.537477,2220.617826,-76762.768900
887.017131,-5921.647536,-444.123565,-78294.959896
887.019707,9474.636058,-6661.853478,-77682.083497
887.022283,4293.194464,-1628.453072,-75383.797003
887.024858,9178.553681,-1184.329507,-71400.100414
887.027434,-6513.812290,2812.782580,-71093.662214
887.030009,-6513.812290,2220.617826,-76762.768900
887.032585,-7550.100608,-2516.700203,-79673.931792
887.035160,-7402.059420,-2664.741391,-79214.274493
887.037736,-1332.370696,-5033.400406,-73545.167808
887.040311,6217.729913,-5625.565159,-69408.252119
887.042887,-3701.029710,3404.947333,-71706.538613
887.045462,-5329.482782,-4737.318029,-75843.454302
887.048038,740.205942,9622.677246,-79367.493593
887.050613,32865.143825,4589.276840,-77069.207099
887.053189,5477.523971,6957.935855,-73698.386908
887.055764,16728.654289,-3849.070898,-70327.566716
887.058340,-2072.576638,-2664.741391,-73851.606007
887.060915,-12287.418637,10214.842000,-77682.083497
887.063491,-2368.659014,4589.276840,-78907.836294
887.066066,14656.077652,-2664.741391,-76762.768900
887.068642,9622.677246,-740.205942,-75690.235202
887.071217,-18209.066173,14063.912898,-74924.139704
887.073793,-19689.478057,5921.647536,-74004.825107
887.076368,12287.418637,9326.594869,-72166.195912
887.078944,20725.766376,5921.647536,-75690.235202
887.081519,3701.029710,-2664.741391,-79520.712692
887.084095,-7698.141797,3701.029710,-79061.055394
887.086670,-8438.347739,-6809.894666,-73851.606007
887.089246,1332.370696,3552.988522,-73545.167808
887.091821,17172.777854,17024.736666,-73545.167808
887.094397,9918.759623,-2220.617826,-75996.673402
887.096972,15840.407159,-12287.418637,-75996.673402
887.099547,9622.677246,-11103.089130,-74924.139704
