#time,accel_x,accel_y,accel_z
599.494155,1628.453072,2960.823768,-75383.797003
599.496717,1924.535449,3404.947333,-75077.358804
599.499279,2072.576638,3404.947333,-75383.797003
599.501841,2072.576638,3256.906145,-74924.139704
599.504403,2664.741391,3108.864956,-75383.797003
599.506965,1776.494261,2960.823768,-74924.139704
599.509527,1776.494261,2368.659014,-74311.263306
599.512089,4145.153275,3997.112087,-74924.139704
599.514651,1776.494261,-7402.059420,-75077.358804
599.517213,-740.205942,-7254.018232,-75077.358804
599.519775,-444.123565,6957.935855,-75537.016103
599.522337,8438.347739,13619.789333,-75537.016103
599.524898,-1924.535449,-1628.453072,-74770.920605
599.527460,-2812.782580,-8290.306550,-75690.235202
599.530022,11547.212695,6365.771101,-75230.577904
599.532584,18801.230927,2072.576638,-76609.549800
599.535146,17172.777854,3701.029710,-73851.606007
599.537708,19689.478057,2664.741391,-72932.291410
599.540270,17764.942608,10658.965565,-72166.195912
599.542832,-12879.583391,-7550.100608,-77988.521696
599.545394,-20873.807564,-1036.288319,-78141.740796
599.547956,-35529.885216,3849.070898,-78907.836294
599.550518,13767.830521,11843.295072,-73545.167808
599.553080,2960.823768,13175.665768,-74464.482406
599.555642,6809.894666,4885.359217,-74924.139704
599.558204,-4441.235652,-3849.070898,-75996.673402
599.560766,17468.860231,-148.041188,-72166.195912
599.563327,11695.253884,7254.018232,-72779.072310
599.565889,-8142.265362,5329.482782,-77988.521696
599.568451,-13027.624579,296.082377,-78141.740796
599.571013,3552.988522,5181.441594,-74158.044206
599.573575,3997.112087,11991.336260,-73391.948708
599.576137,4293.194464,-1036.288319,-75537.016103
599.578699,-4293.194464,-296.082377,-75690.235202
599.581261,-17320.819043,3701.029710,-76915.987999
599.583823,-3108.864956,3404.947333,-75843.454302
599.586385,7105.977043,4885.359217,-74004.825107
599.588947,13027.624579,-2812.782580,-74770.920605
599.591509,2812.782580,592.164754,-75383.797003
599.594071,1480.411884,1480.411884,-73851.606007
599.596633,-1776.494261,9178.553681,-72625.853210
599.599195,-4145.153275,7994.224174,-75077.358804
599.601757,-1776.494261,13471.748144,-76609.549800
599.604319,-11399.171507,2516.700203,-78601.398095
599.606881,15100.201217,7994.224174,-73545.167808
599.609443,11251.130318,5921.647536,-71553.319513
599.612005,888.247130,4737.318029,-72472.634111
599.614567,2368.659014,3849.070898,-76609.549800
599.617129,-18061.024985,592.164754,-78601.398095
599.619691,23094.425390,5625.565159,-72472.634111
599.622253,1628.453072,9770.718434,-74464.482406
599.624815,-5033.400406,11251.130318,-75077.358804
599.627377,-10955.047942,-3701.029710,-77222.426198
599.629939,8882.471304,6069.688724,-72779.072310
599.632501,10955.047942,9770.718434,-74311.263306
599.635063,-8586.388927,3404.947333,-78294.959896
599.637625,14508.036463,1628.453072,-73698.386908
599.640187,8586.388927,-1332.370696,-73238.729609
599.642749,-7105.977043,1628.453072,-75077.358804
599.645311,8290.306550,-6957.935855,-75077.358804
599.647873,3552.988522,-1628.453072,-75537.016103
599.650435,4589.276840,-4885.359217,-76609.549800
599.652997,12287.418637,10807.006753,-73085.510509
599.655559,-3552.988522,6069.688724,-75230.577904
599.658121,3552.988522,5477.523971,-73851.606007
599.660683,3997.112087,-1332.370696,-75077.358804
599.663245,9326.594869,2516.700203,-75996.673402
599.665807,2072.576638,-1924.535449,-76609.549800
599.668369,5033.400406,6365.771101,-74158.044206
599.670930,3701.029710,6069.688724,-75077.358804
599.673492,-1480.411884,-4293.194464,-74617.701505
599.676053,-4441.235652,-10955.047942,-75383.797003
599.678615,12731.542202,-1924.535449,-73851.606007
599.681176,4885.359217,-8586.388927,-75843.454302
599.683738,-1924.535449,-12435.459826,-75383.797003
599.686299,2664.741391,740.205942,-74464.482406
599.688861,2072.576638,9326.594869,-75690.235202
599.691423,-1036.288319,-1924.535449,-76149.892501
599.693984,-4589.276840,-2516.700203,-76303.111601
599.696546,5329.482782,-2072.576638,-75230.577904
599.699107,11103.089130,1776.494261,-74464.482406
599.701669,9030.512492,-6365.771101,-74770.920605
599.704230,6661.853478,4885.359217,-75383.797003
599.706792,18801.230927,-2072.576638,-75537.016103
599.709353,-13619.789333,3997.112087,-77222.426198
599.711915,5329.482782,3997.112087,-74464.482406
599.714476,-592.164754,6069.688724,-75383.797003
599.717038,-740.205942,-10807.006753,-77069.207099
599.719599,7994.224174,-296.082377,-73545.167808
599.722161,13915.871710,1184.329507,-74464.482406
599.724722,2516.700203,6217.729913,-75843.454302
599.727284,7994.224174,-6217.729913,-76915.987999
599.729845,-18801.230927,12287.418637,-74924.139704
599.732407,13767.830521,11547.212695,-72932.291410
599.734969,-2072.576638,13027.624579,-74924.139704
599.737530,-14063.912898,7698.141797,-77682.083497
599.740092,-13767.830521,2368.659014,-76915.987999
599.742653,11103.089130,296.082377,-72472.634111
599.745215,22206.178260,5625.565159,-71553.319513
599.747776,-21910.095883,-1184.329507,-79061.055394
599.750338,-1184.329507,3108.864956,-74158.044206
599.752899,12287.418637,6513.812290,-72012.976812
599.755461,2072.576638,12731.542202,-75383.797003
599.758022,-22354.219448,-5329.482782,-80133.589091
599.760584,-296.082377,-888.247130,-74004.825107
599.763145,15248.242405,9474.636058,-72166.195912
599.765707,-1776.494261,10214.842000,-74158.044206
599.768268,4293.194464,9622.677246,-75383.797003
599.770829,1480.411884,2072.576638,-75690.235202
599.773391,7994.224174,7254.018232,-76303.111601
599.775952,-4441.235652,6365.771101,-76762.768900
599.778513,-5033.400406,10362.883188,-75537.016103
599.781074,5329.482782,12731.542202,-75383.797003
599.783635,592.164754,-1184.329507,-76456.330700
599.786197,-5033.400406,3404.947333,-73851.606007
599.788758,13027.624579,9474.636058,-73698.386908
599.791319,1184.329507,11251.130318,-74004.825107
599.793880,-3256.906145,4145.153275,-74004.825107
599.796441,1480.411884,14508.036463,-73545.167808
599.799003,-1332.370696,9178.553681,-75537.016103
599.801564,-11547.212695,1628.453072,-78141.740796
599.804125,-1776.494261,5329.482782,-75690.235202
599.806686,7550.100608,13915.871710,-72319.415011
599.809247,9178.553681,7994.224174,-75537.016103
599.811809,-19393.395680,-444.123565,-77222.426198
599.814370,21317.931130,-740.205942,-72012.976812
599.816931,5181.441594,8586.388927,-73391.948708
599.819492,-4293.194464,7402.059420,-76149.892501
599.822054,-20577.725188,-1924.535449,-79061.055394
599.824615,8438.347739,6069.688724,-73085.510509
599.827176,7994.224174,8290.306550,-73085.510509
599.829737,4737.318029,7402.059420,-75690.235202
599.832298,3552.988522,3849.070898,-76303.111601
599.834860,10362.883188,2072.576638,-74158.044206
599.837421,-1924.535449,-444.123565,-74158.044206
599.839982,11547.212695,-4293.194464,-74770.920605
599.842543,-592.164754,-2220.617826,-76303.111601
599.845104,1332.370696,-2664.741391,-75537.016103
599.847666,9770.718434,3849.070898,-75077.358804
599.850227,-6365.771101,4441.235652,-75230.577904
599.852788,19245.354492,-296.082377,-73238.729609
599.855349,-592.164754,-1924.535449,-77528.864398
599.857910,8586.388927,-4589.276840,-76915.987999
599.860472,-3108.864956,-4737.318029,-76149.892501
599.863033,7846.182985,8882.471304,-72625.853210
599.865594,-296.082377,-4293.194464,-76456.330700
599.868155,-1480.411884,-1628.453072,-75077.358804
599.870716,10658.965565,1036.288319,-75383.797003
599.873278,148.041188,2072.576638,-76456.330700
599.875839,-444.123565,3997.112087,-75690.235202
599.878400,-11399.171507,1036.288319,-76149.892501
599.880961,-6513.812290,4441.235652,-75230.577904
599.883522,10362.883188,3701.029710,-75230.577904
599.886084,6957.935855,-4145.153275,-75843.454302
599.888645,9918.759623,-10510.924376,-74464.482406
599.891206,5181.441594,-3997.112087,-74311.263306
599.893767,11695.253884,-2368.659014,-74004.825107
599.896328,-4885.359217,-9474.636058,-77528.864398
599.898889,10658.965565,-3997.112087,-74311.263306
599.901451,2812.782580,2220.617826,-75690.235202
599.904012,2664.741391,5773.606348,-75230.577904
599.906573,-1184.329507,444.123565,-74617.701505
599.909134,15100.201217,296.082377,-74158.044206
599.911695,-8142.265362,3552.988522,-76456.330700
599.914257,17320.819043,8142.265362,-73851.606007
599.916818,-2368.659014,-6513.812290,-76915.987999
599.919379,22502.260637,7994.224174,-72319.415011
599.921940,-25907.207970,-4145.153275,-78907.836294
599.924501,-7402.059420,888.247130,-76303.111601
599.927062,148.041188,3997.112087,-73698.386908
599.929624,4885.359217,18061.024985,-72932.291410
599.932185,-14804.118840,2664.741391,-78601.398095
599.934746,-10214.842000,-1628.453072,-76609.549800
599.937307,24130.713709,3701.029710,-70021.128517
599.939868,10362.883188,7994.224174,-73238.729609
599.942429,-9918.759623,888.247130,-77528.864398
599.944991,-3404.947333,296.082377,-74924.139704
599.947552,9474.636058,14656.077652,-72319.415011
599.950113,-11251.130318,444.123565,-77528.864398
599.952674,-3552.988522,6513.812290,-75690.235202
599.955235,7550.100608,2960.823768,-73238.729609
599.957797,4737.318029,13915.871710,-73545.167808
599.960358,-2664.741391,-5773.606348,-76456.330700
599.962919,-3108.864956,3404.947333,-74770.920605
599.965480,8142.265362,8882.471304,-74924.139704
599.968041,6809.894666,2072.576638,-75383.797003
599.970602,-13027.624579,-6809.894666,-76915.987999
599.973163,-6513.812290,14063.912898,-73851.606007
599.975723,15100.201217,10955.047942,-74158.044206
599.978284,-1184.329507,444.123565,-75537.016103
599.980844,-3552.988522,-6217.729913,-75230.577904
599.983404,5033.400406,11991.336260,-75230.577904
599.985965,2516.700203,11547.212695,-74924.139704
599.988525,-14508.036463,3256.906145,-77069.207099
599.991086,-5033.400406,740.205942,-75843.454302
599.993646,10214.842000,14211.954086,-73085.510509
599.996206,2220.617826,2368.659014,-76915.987999
599.998767,-14656.077652,2960.823768,-76149.892501
600.001327,24722.878463,2516.700203,-71246.881314
600.003888,-3108.864956,11251.130318,-75383.797003
600.006448,-17024.736666,3256.906145,-79367.493593
600.009008,-19097.313304,4885.359217,-76609.549800
600.011569,28275.866984,9326.594869,-71859.757712
600.014129,-7402.059420,-3701.029710,-77682.083497
600.016690,-10807.006753,592.164754,-77528.864398
600.019250,23982.672521,-3552.988522,-72166.195912
600.021810,11547.212695,2368.659014,-73391.948708
600.024371,-148.041188,4441.235652,-75843.454302
600.026931,-3552.988522,148.041188,-77222.426198
600.029491,2960.823768,-888.247130,-75230.577904
600.032052,296.082377,3552.988522,-74924.139704
600.034612,888.247130,1184.329507,-75230.577904
600.037173,9622.677246,7402.059420,-72625.853210
600.039733,8438.347739,2516.700203,-75690.235202
600.042293,-2072.576638,1332.370696,-76149.892501
600.044854,8586.388927,-2220.617826,-75230.577904
600.047414,5329.482782,5477.523971,-74770.920605
600.049975,4589.276840,7105.977043,-74004.825107
600.052535,1036.288319,-740.205942,-75996.673402
600.055095,10362.883188,10658.965565,-72472.634111
600.057656,7698.141797,7254.018232,-76456.330700
600.060216,-3997.112087,9918.759623,-77988.521696
600.062777,-19097.313304,296.082377,-77682.083497
600.065337,-3108.864956,9622.677246,-72625.853210
600.067897,31236.690752,9474.636058,-70174.347617
600.070458,8142.265362,-15544.324782,-75690.235202
600.073018,-888.247130,-17172.777854,-76609.549800
600.075578,10510.924376,-296.082377,-75996.673402
600.078138,9918.759623,5033.400406,-73698.386908
600.080698,1924.535449,-3256.906145,-76149.892501
600.083257,-3108.864956,3256.906145,-74464.482406
600.085817,11547.212695,2516.700203,-73851.606007
600.088377,5625.565159,7254.018232,-75843.454302
600.090937,3108.864956,-2072.576638,-76456.330700
600.093497,8438.347739,-2664.741391,-74617.701505
600.096057,-2960.823768,3256.906145,-74158.044206
600.098617,13471.748144,10807.006753,-73085.510509
600.101176,-6809.894666,-3256.906145,-76762.768900
600.103736,19393.395680,5625.565159,-73698.386908
600.106296,-17912.983796,5773.606348,-77988.521696
600.108856,2072.576638,1924.535449,-75383.797003
600.111416,-5181.441594,1184.329507,-74924.139704
600.113976,2220.617826,12435.459826,-73391.948708
600.116536,-13767.830521,3108.864956,-77682.083497
600.119095,-3552.988522,-1480.411884,-75843.454302
600.121655,21910.095883,6069.688724,-71553.319513
600.124215,-3256.906145,4885.359217,-77375.645298
600.126775,-9474.636058,2812.782580,-76303.111601
600.129335,5773.606348,5625.565159,-72319.415011
600.131895,11399.171507,13027.624579,-72625.853210
600.134454,-18505.148550,3552.988522,-77682.083497
600.137014,5329.482782,4293.194464,-75843.454302
600.139574,-15988.448347,3256.906145,-77988.521696
600.142134,-7994.224174,1332.370696,-75690.235202
600.144694,-2812.782580,2516.700203,-76149.892501
600.147254,-5033.400406,-2812.782580,-75996.673402
600.149814,3849.070898,-2960.823768,-74924.139704
600.152373,8438.347739,-1628.453072,-74770.920605
600.154933,10955.047942,2664.741391,-74770.920605
600.157493,8290.306550,3108.864956,-76149.892501
600.160053,-8586.388927,4885.359217,-75077.358804
600.162613,-2516.700203,5033.400406,-75537.016103
600.165173,-17468.860231,5477.523971,-75690.235202
600.167732,8734.430116,1184.329507,-74464.482406
600.170292,-4441.235652,-2960.823768,-76915.987999
600.172852,-1184.329507,2516.700203,-75996.673402
600.175412,-6217.729913,2368.659014,-75077.358804
600.177972,14804.118840,7994.224174,-73851.606007
600.180532,-15248.242405,4293.194464,-75843.454302
600.183091,23686.590144,8290.306550,-72319.415011
600.185651,-6957.935855,7846.182985,-75996.673402
600.188211,-740.205942,8882.471304,-75690.235202
600.190771,-20577.725188,-5181.441594,-77682.083497
600.193331,16876.695478,8882.471304,-71859.757712
600.195890,-1036.288319,148.041188,-77528.864398
600.198450,-4293.194464,-3997.112087,-75843.454302
600.201010,25611.125593,-5329.482782,-71859.757712
600.203570,14211.954086,2664.741391,-72319.415011
600.206130,-1036.288319,1332.370696,-75077.358804
600.208690,2516.700203,-4441.235652,-77069.207099
600.211249,1628.453072,-5181.441594,-76303.111601
600.213809,1628.453072,1628.453072,-75077.358804
600.216369,-888.247130,1628.453072,-75996.673402
600.218929,10510.924376,10658.965565,-73085.510509
600.221489,5921.647536,2664.741391,-75077.358804
600.224048,1332.370696,-592.164754,-75537.016103
600.226608,7402.059420,-2664.741391,-75077.358804
600.229168,8290.306550,5033.400406,-75843.454302
600.231728,-5033.400406,-6661.853478,-77835.302597
600.234288,-888.247130,-2664.741391,-74924.139704
600.236847,-14952.160028,-7698.141797,-76149.892501
600.239407,10807.006753,1332.370696,-73851.606007
600.241967,7254.018232,-5477.523971,-75230.577904
600.244527,4589.276840,-3997.112087,-73851.606007
600.247087,15840.407159,-7254.018232,-73698.386908
600.249647,5181.441594,-2072.576638,-75690.235202
600.252206,-1776.494261,1184.329507,-75690.235202
600.254766,4885.359217,6661.853478,-76149.892501
600.257326,7105.977043,13323.706956,-74770.920605
600.259886,16580.613101,444.123565,-75537.016103
600.262446,-10658.965565,1628.453072,-76149.892501
600.265005,9770.718434,-296.082377,-72932.291410
600.267565,1628.453072,444.123565,-75077.358804
600.270125,6809.894666,-5921.647536,-76303.111601
600.272685,6661.853478,-1776.494261,-76456.330700
600.275245,-5921.647536,-2960.823768,-76915.987999
600.277804,10807.006753,7698.141797,-73238.729609
600.280364,-1332.370696,-6217.729913,-77069.207099
600.282923,1036.288319,7698.141797,-74004.825107
600.285482,4589.276840,4885.359217,-75230.577904
600.288041,3997.112087,4441.235652,-75077.358804
600.290601,-3701.029710,444.123565,-75077.358804
600.293160,3108.864956,11547.212695,-73085.510509
600.295719,-9918.759623,4293.194464,-77682.083497
600.298278,-10807.006753,-2220.617826,-78754.617194
600.300838,-148.041188,2220.617826,-73391.948708
600.303397,21317.931130,15988.448347,-70787.224015
600.305956,296.082377,10955.047942,-76609.549800
600.308515,-14508.036463,-4145.153275,-77375.645298
600.311075,5477.523971,5033.400406,-72932.291410
600.313634,444.123565,12879.583391,-73545.167808
600.316193,5181.441594,7105.977043,-76303.111601
600.318752,-19393.395680,2220.617826,-77528.864398
600.321311,-6069.688724,-5329.482782,-75690.235202
600.323871,1924.535449,16284.530724,-73238.729609
600.326430,22650.301825,12583.501014,-71859.757712
600.328989,20577.725188,5477.523971,-71706.538613
600.331548,17172.777854,2368.659014,-74617.701505
600.334108,-3108.864956,4589.276840,-77835.302597
600.336667,-13619.789333,3256.906145,-77988.521696
600.339226,-16580.613101,11843.295072,-74464.482406
600.341785,7105.977043,12287.418637,-72472.634111
600.344345,-9622.677246,148.041188,-76456.330700
600.346904,-4737.318029,-10214.842000,-76609.549800
600.349463,3108.864956,1480.411884,-75843.454302
600.352022,6809.894666,6661.853478,-74004.825107
600.354582,3108.864956,15396.283594,-75077.358804
600.357141,-22206.178260,3552.988522,-77835.302597
600.359700,8882.471304,7402.059420,-73391.948708
600.362259,6513.812290,6069.688724,-73698.386908
600.364819,8290.306550,15840.407159,-72166.195912
600.367378,8586.388927,-3997.112087,-77069.207099
600.369937,-19837.519246,-11695.253884,-78754.617194
600.372496,18505.148550,-740.205942,-70634.004916
600.375055,3552.988522,4589.276840,-75537.016103
600.377615,-1924.535449,7105.977043,-77069.207099
600.380174,1924.535449,1184.329507,-75383.797003
600.382733,3404.947333,4441.235652,-73238.729609
600.385292,14656.077652,-2812.782580,-75077.358804
600.387851,-444.123565,-6809.894666,-77222.426198
600.390409,-592.164754,-7550.100608,-74924.139704
600.392968,8882.471304,-8438.347739,-75077.358804
600.395527,2220.617826,4293.194464,-73391.948708
600.398086,10658.965565,1480.411884,-75996.673402
600.400645,-7105.977043,-2368.659014,-77375.645298
600.403204,4589.276840,-4441.235652,-75383.797003
600.405763,3849.070898,2072.576638,-74004.825107
600.408322,4589.276840,10658.965565,-76303.111601
600.410881,-10066.800811,-8290.306550,-78141.740796
600.413439,1332.370696,-8586.388927,-74464.482406
600.415998,22206.178260,16580.613101,-70480.785816
600.418557,25018.960840,-1036.288319,-73851.606007
600.421116,-18949.272115,-13619.789333,-79673.931792
600.423675,-20133.601622,-21021.848753,-78754.617194
600.426234,4293.194464,-5477.523971,-76609.549800
600.428793,10066.800811,18209.066173,-74770.920605
600.431352,4737.318029,-1924.535449,-77682.083497
600.433911,2516.700203,-4885.359217,-74617.701505
600.436469,18357.107362,-6513.812290,-72166.195912
600.439028,2072.576638,1776.494261,-75690.235202
600.441587,-1628.453072,-7550.100608,-77375.645298
600.444146,-2812.782580,-4737.318029,-76915.987999
600.446705,10658.965565,7550.100608,-73391.948708
600.449264,3552.988522,9918.759623,-74464.482406
600.451823,5181.441594,4293.194464,-73698.386908
600.454382,12435.459826,-2516.700203,-74311.263306
600.456941,-18357.107362,6217.729913,-76915.987999
600.459499,17024.736666,8438.347739,-72779.072310
600.462058,740.205942,10955.047942,-75230.577904
600.464617,-23242.466579,8586.388927,-77988.521696
600.467176,-9030.512492,6661.853478,-74924.139704
600.469735,11991.336260,13619.789333,-72166.195912
600.472294,8734.430116,592.164754,-77222.426198
600.474853,-20133.601622,1924.535449,-77835.302597
600.477412,11547.212695,7846.182985,-73238.729609
600.479971,9326.594869,14656.077652,-72625.853210
600.482529,-2812.782580,1036.288319,-75690.235202
600.485059,-16284.530724,148.041188,-77835.302597
600.487589,148.041188,11843.295072,-74770.920605
600.490118,2220.617826,-740.205942,-77682.083497
600.492648,-6513.812290,14952.160028,-74617.701505
600.495178,-7254.018232,-13915.871710,-76303.111601
600.497707,2812.782580,13323.706956,-69408.252119
600.500237,47077.097911,12287.418637,-70480.785816
600.502766,-12435.459826,4737.318029,-78754.617194
600.505296,-40119.162056,-9178.553681,-81512.560987
600.507826,-7254.018232,30496.484810,-73698.386908
600.510355,25759.166782,32272.979071,-70787.224015
600.512885,1480.411884,3997.112087,-73545.167808
600.515415,-11103.089130,-18061.024985,-76456.330700
600.517944,-2664.741391,-7994.224174,-75843.454302
600.520474,12287.418637,3701.029710,-73085.510509
600.523004,7550.100608,4441.235652,-76149.892501
600.525533,-29016.072926,4293.194464,-77682.083497
600.528063,21317.931130,10066.800811,-71553.319513
600.530592,6661.853478,13915.871710,-73545.167808
600.533122,-7846.182985,888.247130,-78448.178995
600.535652,-22206.178260,-740.205942,-77528.864398
600.538181,31976.896694,3701.029710,-71706.538613
600.540711,-3701.029710,-3849.070898,-76915.987999
600.543241,3701.029710,-2072.576638,-74617.701505
600.545770,16136.489536,-2960.823768,-73391.948708
600.548300,8142.265362,3256.906145,-72932.291410
600.550830,5033.400406,4293.194464,-76303.111601
600.553359,-4589.276840,3404.947333,-77528.864398
600.555889,1924.535449,-3701.029710,-76303.111601
600.558418,3849.070898,4293.194464,-74158.044206
600.560948,-1184.329507,3404.947333,-75383.797003
600.563478,5329.482782,-6661.853478,-76149.892501
600.566007,-2220.617826,-1036.288319,-74464.482406
600.568537,21465.972318,-740.205942,-72932.291410
600.571067,592.164754,740.205942,-76915.987999
600.573596,1480.411884,-1184.329507,-76915.987999
600.576126,740.205942,6661.853478,-74464.482406
600.578656,10362.883188,6513.812290,-73391.948708
600.581185,592.164754,10510.924376,-75690.235202
600.583715,-2516.700203,5329.482782,-76149.892501
600.586250,-9918.759623,-3997.112087,-77528.864398
600.588785,592.164754,-1924.535449,-75843.454302
600.591320,17320.819043,-3256.906145,-73085.510509
600.593855,13471.748144,-592.164754,-73391.948708
600.596390,1924.535449,-2664.741391,-75383.797003
600.598925,20725.766376,2220.617826,-74464.482406
600.601460,-5625.565159,11843.295072,-76915.987999
600.603995,296.082377,9474.636058,-74617.701505
600.606530,1776.494261,6217.729913,-74158.044206
600.609065,5181.441594,2664.741391,-74004.825107
600.611600,7846.182985,-444.123565,-76915.987999
600.614136,-10807.006753,2368.659014,-77528.864398
600.616671,14952.160028,888.247130,-73698.386908
600.619206,-1628.453072,-6513.812290,-75843.454302
600.621741,17320.819043,148.041188,-72625.853210
600.624276,-14656.077652,3404.947333,-77528.864398
600.626811,888.247130,148.041188,-75537.016103
600.629346,4293.194464,8734.430116,-74158.044206
600.631881,-4737.318029,11251.130318,-75230.577904
600.634416,-15692.365970,888.247130,-77069.207099
600.636951,-1628.453072,444.123565,-73238.729609
600.639486,21465.972318,5921.647536,-72625.853210
600.642021,7402.059420,10066.800811,-74617.701505
600.644556,-6069.688724,2516.700203,-76915.987999
600.647091,-444.123565,1036.288319,-74158.044206
600.649626,12879.583391,10066.800811,-73238.729609
600.652162,-9030.512492,4441.235652,-77682.083497
600.654697,-8882.471304,2664.741391,-76149.892501
600.657232,-5181.441594,10066.800811,-73545.167808
600.659767,21910.095883,18653.189738,-74158.044206
600.662302,4737.318029,9178.553681,-74617.701505
600.664837,-15544.324782,6661.853478,-76303.111601
600.667372,-7846.182985,2072.576638,-77069.207099
600.669907,-15100.201217,9178.553681,-75537.016103
600.672442,-17024.736666,11843.295072,-76762.768900
600.674977,10658.965565,15100.201217,-74924.139704
600.677512,-6513.812290,-444.123565,-75690.235202
600.680047,7254.018232,-8142.265362,-73238.729609
600.682582,1628.453072,2368.659014,-72932.291410
600.685117,-1332.370696,10955.047942,-74617.701505
600.687657,-1776.494261,15100.201217,-77528.864398
600.690197,-18653.189738,5921.647536,-78448.178995
600.692736,19245.354492,8142.265362,-71706.538613
600.695276,10658.965565,7254.018232,-72319.415011
600.697815,-6217.729913,6661.853478,-75843.454302
600.700355,-20281.642811,-4293.194464,-78601.398095
600.702894,19689.478057,7550.100608,-76149.892501
600.705433,15544.324782,3552.988522,-74158.044206
600.707973,-7550.100608,2516.700203,-77682.083497
600.710512,13027.624579,-2516.700203,-73851.606007
600.713052,9918.759623,148.041188,-71246.881314
600.715591,9030.512492,3552.988522,-73085.510509
600.718131,-2516.700203,-4737.318029,-78601.398095
600.720670,1628.453072,-5625.565159,-77222.426198
600.723210,3849.070898,0.000000,-74464.482406
600.725749,740.205942,6365.771101,-74311.263306
600.728288,2220.617826,-4885.359217,-76303.111601
600.730828,-2220.617826,148.041188,-73391.948708
600.733367,16580.613101,-4441.235652,-74158.044206
600.735907,13323.706956,2664.741391,-74464.482406
600.738446,2812.782580,-10658.965565,-76456.330700
600.740986,-12731.542202,-4293.194464,-74770.920605
600.743525,7254.018232,4737.318029,-73545.167808
600.746065,14063.912898,9770.718434,-75077.358804
600.748604,-6809.894666,-5329.482782,-78754.617194
600.751143,-22502.260637,-7846.182985,-78907.836294
600.753683,10955.047942,7698.141797,-74004.825107
600.756222,19541.436869,8734.430116,-72779.072310
600.758762,592.164754,-13027.624579,-74311.263306
600.761301,17172.777854,-12139.377449,-74158.044206
600.763841,12139.377449,592.164754,-75843.454302
600.766380,6069.688724,-2516.700203,-76303.111601
600.768920,-2220.617826,-6217.729913,-76915.987999
600.771459,-4293.194464,-1924.535449,-74464.482406
600.773999,15396.283594,7846.182985,-75230.577904
600.776538,-16580.613101,6957.935855,-78448.178995
600.779077,9622.677246,2516.700203,-74311.263306
600.781617,-444.123565,-7550.100608,-76149.892501
600.784156,26795.455100,6217.729913,-71400.100414
600.786696,-8882.471304,-1036.288319,-77222.426198
600.789239,-6513.812290,-2072.576638,-76762.768900
600.791783,4441.235652,9770.718434,-73391.948708
600.794326,-740.205942,20577.725188,-73391.948708
600.796870,-9178.553681,7698.141797,-77988.521696
600.799413,-20429.683999,-3849.070898,-78141.740796
600.801956,14804.118840,0.000000,-72472.634111
600.804500,5921.647536,8882.471304,-74924.139704
600.807043,-444.123565,4293.194464,-75537.016103
600.809587,2664.741391,888.247130,-74311.263306
600.812130,7105.977043,6809.894666,-74311.263306
600.814674,-7550.100608,2960.823768,-77528.864398
600.817217,-7698.141797,11251.130318,-75230.577904
600.819761,740.205942,10214.842000,-74464.482406
600.822304,14952.160028,18949.272115,-73391.948708
600.824847,3552.988522,20725.766376,-75537.016103
600.827391,-12139.377449,0.000000,-72779.072310
600.829934,-19689.478057,3701.029710,-78448.178995
600.832478,-33013.185013,14804.118840,-79061.055394
600.835021,2812.782580,27979.784608,-74770.920605
600.837565,2220.617826,15100.201217,-75077.358804
600.840108,-3552.988522,-6809.894666,-75383.797003
600.842652,-148.041188,888.247130,-74924.139704
600.845195,2812.782580,4441.235652,-73698.386908
600.847738,2516.700203,14359.995275,-75843.454302
600.850282,-26795.455100,5625.565159,-79214.274493
600.852825,22206.178260,12583.501014,-71400.100414
600.855369,14952.160028,12731.542202,-72012.976812
600.857912,-4737.318029,19245.354492,-72166.195912
600.860456,-22650.301825,-10066.800811,-80133.589091
600.862999,-3701.029710,3701.029710,-75537.016103
600.865543,18061.024985,444.123565,-74311.263306
600.868086,-10807.006753,6661.853478,-77988.521696
600.870629,15396.283594,-4293.194464,-73391.948708
600.873173,11843.295072,3997.112087,-70480.785816
600.875716,9178.553681,4885.359217,-74464.482406
600.878260,-7698.141797,-888.247130,-77988.521696
600.880803,3997.112087,-4737.318029,-75996.673402
600.883347,4885.359217,3256.906145,-74924.139704
600.885890,444.123565,7550.100608,-75996.673402
600.888434,-1184.329507,-3552.988522,-75537.016103
600.890981,-148.041188,2960.823768,-73545.167808
600.893528,14211.954086,-3404.947333,-75383.797003
600.896075,-1036.288319,-7105.977043,-78448.178995
600.898622,-2516.700203,-11103.089130,-77835.302597
600.901169,-12583.501014,-6365.771101,-75996.673402
600.903716,7846.182985,-5921.647536,-73238.729609
600.906263,13471.748144,2072.576638,-71553.319513
600.908810,18653.189738,-1184.329507,-72932.291410
600.911357,5773.606348,-11399.171507,-77682.083497
600.913904,-14508.036463,-3997.112087,-78907.836294
600.916452,-9030.512492,-6217.729913,-77528.864398
600.918999,13323.706956,5477.523971,-73085.510509
600.921546,23686.590144,7254.018232,-72319.415011
600.924093,740.205942,6957.935855,-75383.797003
600.926640,9474.636058,-8882.471304,-75383.797003
600.929187,2664.741391,-148.041188,-74004.825107
600.931734,6809.894666,-3404.947333,-78141.740796
600.934281,-18949.272115,9918.759623,-77375.645298
600.936828,16284.530724,3849.070898,-73085.510509
600.939375,-4737.318029,3256.906145,-75077.358804
600.941922,22798.343014,1924.535449,-74004.825107
600.944469,-29756.278868,740.205942,-79214.274493
600.947017,13323.706956,-2220.617826,-73851.606007
600.949564,6809.894666,13027.624579,-73085.510509
600.952111,2072.576638,17172.777854,-73085.510509
600.954658,-20725.766376,1036.288319,-78754.617194
600.957205,-3849.070898,6365.771101,-74311.263306
600.959752,15988.448347,1924.535449,-74770.920605
600.962299,-11843.295072,8142.265362,-77069.207099
600.964846,-148.041188,5773.606348,-74464.482406
600.967393,7698.141797,11251.130318,-73545.167808
600.969940,-444.123565,2664.741391,-75843.454302
600.972490,-6069.688724,1036.288319,-76609.549800
600.975039,4293.194464,4589.276840,-74464.482406
600.977588,2960.823768,11251.130318,-74004.825107
600.980137,14211.954086,16284.530724,-73851.606007
600.982687,-2516.700203,3701.029710,-73851.606007
600.985236,2072.576638,3552.988522,-74311.263306
600.987785,3997.112087,10510.924376,-75537.016103
600.990335,-12139.377449,7105.977043,-77375.645298
600.992884,-10362.883188,6365.771101,-76149.892501
600.995433,-5773.606348,10955.047942,-76915.987999
600.997982,-740.205942,2664.741391,-74617.701505
601.000532,-5329.482782,2368.659014,-74004.825107
601.003081,3256.906145,-7105.977043,-75843.454302
601.005630,-5033.400406,11251.130318,-73698.386908
601.008180,13027.624579,6661.853478,-75537.016103
601.010729,-16284.530724,5033.400406,-77682.083497
601.013278,-4589.276840,3997.112087,-76609.549800
601.015827,-14211.954086,2960.823768,-74770.920605
601.018377,26647.413912,8882.471304,-71246.881314
601.020926,-13323.706956,-10214.842000,-79520.712692
601.023475,5921.647536,-5625.565159,-74311.263306
601.026024,19097.313304,-7254.018232,-74158.044206
601.028574,2664.741391,4589.276840,-75996.673402
601.031123,-2664.741391,-1332.370696,-75843.454302
601.033672,-888.247130,5921.647536,-72779.072310
601.036222,14359.995275,-3108.864956,-75077.358804
601.038771,1628.453072,-888.247130,-77528.864398
601.041320,2368.659014,-5625.565159,-76609.549800
601.043869,8882.471304,5033.400406,-72932.291410
601.046419,15988.448347,0.000000,-73238.729609
601.048968,-10807.006753,148.041188,-75996.673402
601.051517,17616.901420,-5181.441594,-73698.386908
601.054067,2368.659014,-5033.400406,-76303.111601
601.056616,-5625.565159,-5329.482782,-75843.454302
601.059165,8290.306550,-1924.535449,-73851.606007
601.061714,5773.606348,1480.411884,-72319.415011
601.064264,7846.182985,2812.782580,-73851.606007
601.066813,3849.070898,1184.329507,-77069.207099
601.069362,-11991.336260,4293.194464,-77069.207099
601.071912,13619.789333,1332.370696,-76456.330700
601.074463,-5921.647536,6513.812290,-77528.864398
601.077015,2072.576638,7254.018232,-74617.701505
601.079567,4885.359217,4145.153275,-73698.386908
601.082119,12139.377449,-3108.864956,-74924.139704
601.084670,-7254.018232,-13175.665768,-77988.521696
601.087222,12287.418637,-5181.441594,-75537.016103
601.089774,-10658.965565,740.205942,-77528.864398
601.092326,8586.388927,7698.141797,-73698.386908
601.094877,-8734.430116,-8290.306550,-76762.768900
601.097429,15988.448347,12139.377449,-71859.757712
601.099981,1776.494261,-444.123565,-76915.987999
601.102533,2812.782580,-148.041188,-75383.797003
601.105084,1480.411884,-888.247130,-75077.358804
601.107636,7846.182985,14063.912898,-71706.538613
601.110188,-888.247130,2812.782580,-75537.016103
601.112740,-19097.313304,-4145.153275,-77375.645298
601.115292,11695.253884,888.247130,-73085.510509
601.117843,2368.659014,13027.624579,-75843.454302
601.120395,-3552.988522,6809.894666,-76762.768900
601.122947,888.247130,3108.864956,-74004.825107
601.125499,4589.276840,6809.894666,-73391.948708
601.128050,-5921.647536,3256.906145,-76915.987999
601.130602,1628.453072,10214.842000,-75077.358804
601.133154,3701.029710,3997.112087,-77222.426198
601.135706,-12435.459826,1036.288319,-76762.768900
601.138257,-6069.688724,14211.954086,-76149.892501
601.140809,-20429.683999,13027.624579,-76915.987999
601.143361,-9030.512492,17616.901420,-75230.577904
601.145913,12435.459826,12879.583391,-74464.482406
601.148464,1036.288319,2664.741391,-74924.139704
601.151016,-1776.494261,-1036.288319,-75077.358804
601.153568,-7254.018232,8882.471304,-74311.263306
601.156120,-1776.494261,1628.453072,-74924.139704
601.158672,-12583.501014,13323.706956,-74464.482406
601.161223,22798.343014,9178.553681,-73085.510509
601.163775,-3997.112087,4589.276840,-76609.549800
601.166327,-3108.864956,-3404.947333,-77528.864398
601.168879,-2072.576638,7105.977043,-72472.634111
601.171430,24722.878463,5033.400406,-71093.662214
601.173982,-5033.400406,-5329.482782,-77528.864398
601.176536,4589.276840,-1036.288319,-75383.797003
601.179089,20429.683999,-5329.482782,-74311.263306
601.181642,3997.112087,6365.771101,-75230.577904
601.184196,2072.576638,1480.411884,-75537.016103
601.186749,-5329.482782,5033.400406,-74464.482406
601.189303,16580.613101,-4145.153275,-73545.167808
601.191856,1924.535449,740.205942,-76915.987999
601.194410,1036.288319,-5033.400406,-77682.083497
601.196963,3997.112087,3552.988522,-73391.948708
601.199516,8882.471304,-5773.606348,-73238.729609
601.202070,-2960.823768,-1036.288319,-73085.510509
601.204623,18949.272115,10362.883188,-73085.510509
601.207177,6513.812290,8290.306550,-75996.673402
601.209730,0.000000,-3997.112087,-78294.959896
601.212284,-19541.436869,-2072.576638,-79827.150892
601.214837,-22058.137072,5033.400406,-76609.549800
601.217391,20133.601622,5921.647536,-70327.566716
601.219944,34197.514520,-5329.482782,-69561.471218
601.222497,25463.084405,-20281.642811,-75230.577904
601.225051,-7698.141797,-16728.654289,-78448.178995
601.227604,3849.070898,5625.565159,-75230.577904
601.230158,8438.347739,19393.395680,-73238.729609
601.232711,1924.535449,12435.459826,-74464.482406
601.235265,1628.453072,4885.359217,-75230.577904
601.237818,14804.118840,3701.029710,-74770.920605
601.240371,-4293.194464,4589.276840,-76915.987999
601.242925,10510.924376,0.000000,-75077.358804
601.245478,-5773.606348,-7254.018232,-75077.358804
601.248032,21910.095883,4293.194464,-71246.881314
601.250585,-21021.848753,2368.659014,-78141.740796
601.253139,6513.812290,296.082377,-74924.139704
601.255692,2664.741391,8734.430116,-75690.235202
601.258246,-6661.853478,14063.912898,-76456.330700
601.260799,-15840.407159,1924.535449,-77069.207099
601.263352,-3849.070898,5773.606348,-72779.072310
601.265906,11399.171507,1332.370696,-74617.701505
601.268459,-14952.160028,13767.830521,-77682.083497
601.271013,-4293.194464,6661.853478,-76915.987999
601.273566,10214.842000,15692.365970,-72472.634111
601.276120,-2664.741391,2516.700203,-75690.235202
601.278675,-4737.318029,7698.141797,-74004.825107
601.281230,3108.864956,444.123565,-74158.044206
601.283785,10214.842000,14359.995275,-74158.044206
601.286340,1628.453072,9474.636058,-77375.645298
601.288896,-20281.642811,-296.082377,-78907.836294
601.291451,-19541.436869,6513.812290,-75230.577904
601.294006,17912.983796,14804.118840,-70021.128517
601.296561,10510.924376,19985.560434,-73851.606007
601.299116,-592.164754,6513.812290,-75996.673402
601.301672,-6809.894666,-2072.576638,-76149.892501
601.304227,-2516.700203,1036.288319,-75077.358804
601.306782,10658.965565,17320.819043,-72625.853210
601.309337,-18801.230927,2368.659014,-77222.426198
601.311892,-2960.823768,9326.594869,-74311.263306
601.314448,18505.148550,14063.912898,-72319.415011
601.317003,10362.883188,16580.613101,-74617.701505
601.319558,-28275.866984,-10955.047942,-81512.560987
601.322113,6957.935855,888.247130,-73391.948708
601.324668,12583.501014,1184.329507,-72932.291410
601.327224,-6957.935855,4441.235652,-76762.768900
601.329779,15988.448347,-3256.906145,-75843.454302
601.332334,8882.471304,888.247130,-73238.729609
601.334889,16136.489536,4293.194464,-73238.729609
601.337445,-5477.523971,-2220.617826,-77375.645298
601.340000,1628.453072,-3256.906145,-75537.016103
601.342555,7402.059420,444.123565,-74311.263306
601.345110,1332.370696,9474.636058,-76303.111601
601.347665,-1480.411884,740.205942,-77069.207099
601.350221,8882.471304,-1924.535449,-73545.167808
601.352776,11251.130318,-1628.453072,-73085.510509
601.355331,7550.100608,13175.665768,-74617.701505
601.357886,12287.418637,444.123565,-75383.797003
601.360441,-6513.812290,-1332.370696,-77375.645298
601.362997,-10510.924376,5921.647536,-77682.083497
601.365552,6513.812290,16284.530724,-74311.263306
601.368107,7550.100608,2664.741391,-74770.920605
601.370662,-3701.029710,-9918.759623,-74464.482406
601.373217,15248.242405,-2516.700203,-74617.701505
601.375773,5921.647536,4737.318029,-76149.892501
601.378328,4145.153275,-2072.576638,-75230.577904
601.380884,4441.235652,-592.164754,-74770.920605
601.383440,9918.759623,4441.235652,-73545.167808
601.385996,11399.171507,-444.123565,-75230.577904
601.388552,-8734.430116,2960.823768,-77069.207099
601.391108,5329.482782,3849.070898,-74924.139704
601.393665,-3997.112087,-8290.306550,-76609.549800
601.396221,21169.889941,11251.130318,-70787.224015
601.398777,-8142.265362,-1036.288319,-76915.987999
601.401333,-4589.276840,-4589.276840,-76609.549800
601.403889,8142.265362,6513.812290,-73851.606007
601.406445,-1036.288319,17468.860231,-74464.482406
601.409001,-18801.230927,1776.494261,-78754.617194
601.411558,-592.164754,15544.324782,-74158.044206
601.414114,8290.306550,444.123565,-75690.235202
601.416670,-13915.871710,9030.512492,-75383.797003
601.419226,9178.553681,7550.100608,-73238.729609
601.421782,2812.782580,11547.212695,-74770.920605
601.424338,6809.894666,5625.565159,-75690.235202
601.426894,-11103.089130,6069.688724,-77069.207099
601.429451,3108.864956,2516.700203,-74464.482406
601.432007,-4885.359217,1332.370696,-75690.235202
601.434563,148.041188,3849.070898,-76149.892501
601.437119,4441.235652,7550.100608,-74924.139704
601.439675,592.164754,888.247130,-74924.139704
601.442231,5033.400406,2368.659014,-73238.729609
601.444787,2516.700203,6365.771101,-73698.386908
601.447343,-2072.576638,7846.182985,-75537.016103
601.449900,-14508.036463,5773.606348,-76456.330700
601.452456,5329.482782,7698.141797,-75230.577904
601.455012,-19985.560434,2664.741391,-76915.987999
601.457568,20429.683999,9326.594869,-71093.662214
601.460124,2664.741391,9622.677246,-73698.386908
601.462680,-1776.494261,5033.400406,-77069.207099
601.465236,-15840.407159,-2664.741391,-76609.549800
601.467793,38638.750172,12287.418637,-69867.909418
601.470349,-14508.036463,-7698.141797,-78754.617194
601.472905,0.000000,0.000000,-74311.263306
601.475461,15544.324782,-2960.823768,-73391.948708
601.478017,7105.977043,9622.677246,-75383.797003
601.480573,-8882.471304,-4293.194464,-78754.617194
601.483131,-10658.965565,4589.276840,-76915.987999
601.485688,21169.889941,-2072.576638,-72319.415011
601.488245,3849.070898,6069.688724,-75537.016103
601.490803,-1480.411884,-2664.741391,-77375.645298
601.493360,2368.659014,1036.288319,-74004.825107
601.495917,15840.407159,3404.947333,-73238.729609
601.498475,1036.288319,-3849.070898,-77069.207099
601.501032,1332.370696,592.164754,-74770.920605
601.503589,14952.160028,9770.718434,-73851.606007
601.506147,1924.535449,11103.089130,-76149.892501
601.508704,-14359.995275,-2664.741391,-78601.398095
601.511261,-17024.736666,444.123565,-77375.645298
601.513819,-10362.883188,-888.247130,-76915.987999
601.516376,14656.077652,4145.153275,-74770.920605
601.518933,9918.759623,3849.070898,-73238.729609
601.521491,12287.418637,-4885.359217,-75077.358804
601.524048,5477.523971,740.205942,-75383.797003
601.526605,12287.418637,-4293.194464,-76762.768900
601.529163,-5625.565159,-7254.018232,-75843.454302
601.531720,17468.860231,1332.370696,-73085.510509
601.534277,-7994.224174,6957.935855,-76456.330700
601.536835,740.205942,7402.059420,-75690.235202
601.539392,148.041188,-8882.471304,-76149.892501
601.541949,20725.766376,10362.883188,-71400.100414
601.544507,22206.178260,10362.883188,-72166.195912
601.547064,-6513.812290,8142.265362,-76456.330700
601.549621,-9326.594869,-1924.535449,-76149.892501
601.552179,6365.771101,16580.613101,-72012.976812
601.554736,4885.359217,4737.318029,-75690.235202
601.557293,-16876.695478,1628.453072,-76762.768900
601.559851,13175.665768,-1480.411884,-74004.825107
601.562408,-14063.912898,14359.995275,-75537.016103
601.564965,1924.535449,10214.842000,-74311.263306
601.567523,-5477.523971,8438.347739,-75077.358804
601.570080,6661.853478,4293.194464,-75230.577904
601.572637,-8586.388927,5773.606348,-77375.645298
601.575195,-6661.853478,3404.947333,-75996.673402
601.577752,-17172.777854,-7698.141797,-75537.016103
601.580309,15840.407159,21465.972318,-70480.785816
601.582867,25463.084405,11843.295072,-74158.044206
601.585425,-15396.283594,2960.823768,-76149.892501
601.587983,-10510.924376,7254.018232,-76456.330700
601.590540,-1628.453072,20281.642811,-74617.701505
601.593098,-5477.523971,10955.047942,-75230.577904
601.595656,-7550.100608,-2072.576638,-76915.987999
601.598214,-13471.748144,1924.535449,-75230.577904
601.600772,29608.237680,8142.265362,-71093.662214
601.603330,-5625.565159,2220.617826,-76915.987999
601.605888,-10807.006753,1924.535449,-77988.521696
601.608446,-21169.889941,-1480.411884,-77069.207099
601.611004,40119.162056,11399.171507,-70021.128517
601.613561,-7550.100608,-5773.606348,-77222.426198
601.616119,3701.029710,3701.029710,-74004.825107
601.618677,9918.759623,-6661.853478,-75537.016103
601.621235,5033.400406,5329.482782,-74924.139704
601.623793,-1628.453072,-6217.729913,-74924.139704
601.626351,-1332.370696,8290.306550,-72932.291410
601.628909,14063.912898,-6661.853478,-75690.235202
601.631467,-2220.617826,-2960.823768,-77375.645298
601.634024,5625.565159,-8438.347739,-75383.797003
601.636582,6957.935855,7402.059420,-73238.729609
601.639140,13915.871710,3701.029710,-73698.386908
601.641698,-7402.059420,-2960.823768,-77069.207099
601.644256,5625.565159,-1184.329507,-74617.701505
601.646814,2960.823768,2072.576638,-75690.235202
601.649372,-1332.370696,3552.988522,-74617.701505
601.651930,-1036.288319,-2516.700203,-75690.235202
601.654488,3849.070898,-2812.782580,-74311.263306
601.657045,10362.883188,-6217.729913,-74924.139704
601.659603,11103.089130,-4885.359217,-74311.263306
601.662161,4737.318029,296.082377,-74617.701505
601.664719,7550.100608,3256.906145,-74924.139704
601.667277,4145.153275,444.123565,-75077.358804
601.669835,9770.718434,5181.441594,-74158.044206
601.672393,9622.677246,-4737.318029,-77069.207099
601.674951,-7698.141797,5625.565159,-75383.797003
601.677509,7550.100608,3849.070898,-73698.386908
601.680066,-4293.194464,5477.523971,-75077.358804
601.682624,14508.036463,-3849.070898,-76762.768900
601.685182,-30348.443622,5329.482782,-78907.836294
601.687741,20577.725188,9178.553681,-73238.729609
601.690299,2812.782580,13323.706956,-74770.920605
601.692858,-12879.583391,6809.894666,-76456.330700
601.695417,-6513.812290,2516.700203,-76149.892501
601.697975,12435.459826,6661.853478,-74004.825107
601.700534,-1184.329507,-3849.070898,-77222.426198
601.703093,-296.082377,3997.112087,-73851.606007
601.705651,8142.265362,6513.812290,-73851.606007
601.708210,4145.153275,11843.295072,-74158.044206
601.710768,-4737.318029,-4441.235652,-76762.768900
601.713327,3108.864956,14063.912898,-73391.948708
601.715886,10362.883188,8438.347739,-75537.016103
601.718444,-6513.812290,10955.047942,-75537.016103
601.721003,-5033.400406,5033.400406,-74924.139704
601.723562,6809.894666,13471.748144,-73698.386908
601.726120,6069.688724,12879.583391,-74770.920605
601.728679,-7254.018232,8290.306550,-75843.454302
601.731238,-7105.977043,296.082377,-75230.577904
601.733796,-9622.677246,5329.482782,-76609.549800
601.736355,5625.565159,8586.388927,-75383.797003
601.738914,-21169.889941,5921.647536,-76149.892501
601.741472,15988.448347,3997.112087,-72625.853210
601.744031,2368.659014,7105.977043,-74924.139704
601.746589,-1924.535449,2368.659014,-75996.673402
601.749148,-7402.059420,5181.441594,-74617.701505
601.751707,27535.661042,6513.812290,-73391.948708
601.754265,-17024.736666,-7105.977043,-79367.493593
601.756824,7846.182985,2368.659014,-73851.606007
601.759383,2960.823768,0.000000,-76303.111601
601.761941,5329.482782,6365.771101,-75843.454302
601.764500,-4737.318029,-4145.153275,-76915.987999
601.767059,-2664.741391,6809.894666,-73851.606007
601.769617,23094.425390,-5625.565159,-74158.044206
601.772176,-3849.070898,-592.164754,-77835.302597
601.774735,6513.812290,-6661.853478,-76149.892501
601.777293,4589.276840,6365.771101,-72779.072310
601.779852,7994.224174,1332.370696,-75383.797003
601.782410,-3108.864956,-2072.576638,-76609.549800
601.784969,-2220.617826,-7550.100608,-76149.892501
601.787528,6365.771101,2516.700203,-74464.482406
601.790086,8882.471304,8290.306550,-72625.853210
601.792645,17764.942608,3108.864956,-72472.634111
601.795204,19837.519246,-888.247130,-74617.701505
601.797762,-2812.782580,-6661.853478,-77069.207099
601.800321,-5773.606348,-4737.318029,-76609.549800
601.802880,7550.100608,13175.665768,-75230.577904
601.805438,12139.377449,8882.471304,-73698.386908
601.807997,1628.453072,-2516.700203,-76303.111601
601.810555,1924.535449,-13471.748144,-74770.920605
601.813114,16284.530724,-2960.823768,-74311.263306
601.815673,-9326.594869,-2368.659014,-78294.959896
601.818231,1776.494261,2960.823768,-75383.797003
601.820790,-444.123565,-5625.565159,-75383.797003
601.823349,19393.395680,12583.501014,-71246.881314
601.825907,18357.107362,11399.171507,-72166.195912
601.828466,-8438.347739,8586.388927,-76915.987999
601.831025,-4441.235652,888.247130,-77222.426198
601.833583,4589.276840,12139.377449,-72779.072310
601.836142,-1628.453072,0.000000,-76762.768900
601.838700,-9918.759623,9622.677246,-74617.701505
601.841259,12435.459826,3701.029710,-74617.701505
601.843818,-16432.571912,14804.118840,-76456.330700
601.846376,444.123565,7105.977043,-75996.673402
601.848935,2368.659014,10362.883188,-73698.386908
601.851494,9326.594869,3997.112087,-73545.167808
601.854052,-4441.235652,888.247130,-74770.920605
601.856611,5921.647536,2368.659014,-74004.825107
601.859170,5773.606348,-7698.141797,-75690.235202
601.861728,-4737.318029,-296.082377,-74924.139704
601.864287,1184.329507,1628.453072,-74924.139704
601.866845,0.000000,9326.594869,-74004.825107
601.869404,-3701.029710,4145.153275,-75690.235202
601.871963,-5773.606348,4885.359217,-76609.549800
601.874521,-2220.617826,7254.018232,-76762.768900
601.877080,-20577.725188,4885.359217,-77069.207099
601.879639,20429.683999,3404.947333,-71246.881314
601.882197,3849.070898,4737.318029,-74464.482406
601.884756,-3701.029710,-2220.617826,-76303.111601
601.887314,-10214.842000,7254.018232,-78141.740796
601.889873,26055.249158,4737.318029,-71859.757712
601.892432,-1628.453072,-7846.182985,-77835.302597
601.894991,-2960.823768,-1184.329507,-75996.673402
601.897550,10362.883188,-7105.977043,-75690.235202
601.900110,4885.359217,9622.677246,-74464.482406
601.902669,-3701.029710,-4737.318029,-77528.864398
601.905228,-4589.276840,7105.977043,-73545.167808
601.907787,20133.601622,-9474.636058,-75690.235202
601.910346,-3701.029710,-5181.441594,-77222.426198
601.912905,6513.812290,-10955.047942,-76149.892501
601.915464,7254.018232,6217.729913,-72319.415011
601.918023,15396.283594,2664.741391,-72472.634111
601.920583,-7254.018232,-6365.771101,-76915.987999
601.923142,-4737.318029,-5921.647536,-76303.111601
601.925701,3701.029710,-2812.782580,-75996.673402
601.928260,17912.983796,11695.253884,-72472.634111
601.930819,5625.565159,-6661.853478,-76915.987999
601.933378,-14063.912898,-7254.018232,-76915.987999
601.935937,0.000000,3108.864956,-76303.111601
601.938496,15544.324782,9622.677246,-75230.577904
601.941056,9918.759623,-888.247130,-75383.797003
601.943615,6809.894666,-6957.935855,-74617.701505
601.946174,15100.201217,2072.576638,-72932.291410
601.948733,9474.636058,-1628.453072,-76762.768900
601.951292,-10658.965565,2960.823768,-77222.426198
601.953851,5033.400406,2368.659014,-75690.235202
601.956410,-7402.059420,0.000000,-76303.111601
601.958969,20873.807564,6513.812290,-73545.167808
601.961529,-28868.031738,3849.070898,-78141.740796
601.964088,12583.501014,4589.276840,-72932.291410
601.966647,6809.894666,5921.647536,-75077.358804
601.969206,-3997.112087,12583.501014,-75537.016103
601.971765,-10066.800811,888.247130,-76762.768900
601.974324,3997.112087,8290.306550,-75230.577904
601.976883,-15988.448347,-6217.729913,-77222.426198
601.979442,12583.501014,7846.182985,-73238.729609
601.982002,12287.418637,10214.842000,-73085.510509
601.984561,4885.359217,12731.542202,-74158.044206
601.987120,-2368.659014,-1776.494261,-76915.987999
601.989679,444.123565,12583.501014,-75383.797003
601.992238,-3108.864956,-1924.535449,-75690.235202
601.994797,1184.329507,2368.659014,-75690.235202
601.997355,-5181.441594,5477.523971,-75230.577904
601.999914,4737.318029,5921.647536,-73545.167808
602.002473,11103.089130,4293.194464,-73545.167808
602.005032,-2516.700203,5033.400406,-74158.044206
602.007590,-4737.318029,2812.782580,-75996.673402
602.010149,-7254.018232,11399.171507,-76915.987999
602.012708,-16284.530724,7994.224174,-77222.426198
602.015267,-5033.400406,7846.182985,-74004.825107
602.017825,15248.242405,13175.665768,-72625.853210
602.020384,-1480.411884,9178.553681,-75537.016103
602.022943,-14063.912898,-3849.070898,-78448.178995
602.025502,23686.590144,3997.112087,-72012.976812
602.028060,4737.318029,-8438.347739,-75383.797003
602.030619,2960.823768,-592.164754,-75077.358804
602.033178,9622.677246,-7994.224174,-76149.892501
602.035737,1184.329507,5329.482782,-75690.235202
602.038295,-3108.864956,-6069.688724,-76149.892501
602.040854,-3849.070898,10510.924376,-72472.634111
602.043413,24722.878463,-1184.329507,-72779.072310
602.045972,-5181.441594,-2220.617826,-77835.302597
602.048530,4737.318029,-4885.359217,-76303.111601
602.051089,7402.059420,2516.700203,-73698.386908
602.053648,13027.624579,7254.018232,-72779.072310
602.056207,-8586.388927,-8586.388927,-77375.645298
602.058765,-9326.594869,-6957.935855,-75690.235202
602.061324,8882.471304,-3849.070898,-75537.016103
602.063883,1480.411884,-2516.700203,-75230.577904
602.066442,6661.853478,-1184.329507,-74004.825107
602.069000,3997.112087,-5625.565159,-76149.892501
602.071559,-5181.441594,-7105.977043,-75996.673402
602.074118,4589.276840,148.041188,-76303.111601
602.076677,9770.718434,4441.235652,-75077.358804
602.079235,10362.883188,9178.553681,-74924.139704
602.081794,0.000000,-592.164754,-76149.892501
602.084353,5329.482782,296.082377,-73085.510509
602.086912,4293.194464,444.123565,-74617.701505
602.089470,740.205942,6069.688724,-76303.111601
602.092029,-148.041188,-10214.842000,-78294.959896
602.094588,444.123565,13471.748144,-72779.072310
602.097147,13767.830521,10510.924376,-73085.510509
602.099706,-10658.965565,7254.018232,-76149.892501
602.102265,888.247130,592.164754,-74464.482406
602.104824,2368.659014,13027.624579,-73085.510509
602.107382,10214.842000,4885.359217,-74311.263306
602.109941,-13027.624579,5477.523971,-76149.892501
602.112500,9326.594869,5181.441594,-74617.701505
602.115059,-22798.343014,12879.583391,-77528.864398
602.117618,2368.659014,10066.800811,-73851.606007
602.120177,3108.864956,16284.530724,-73238.729609
602.122736,4589.276840,-2516.700203,-75843.454302
602.125295,-4737.318029,6513.812290,-74924.139704
602.127854,5181.441594,2812.782580,-76149.892501
602.130413,-10066.800811,1036.288319,-77222.426198
602.132972,-7994.224174,5033.400406,-75383.797003
602.135531,8734.430116,10066.800811,-72779.072310
602.138089,1628.453072,12731.542202,-74617.701505
602.140648,-444.123565,2368.659014,-75230.577904
602.143207,-2368.659014,10362.883188,-75690.235202
602.145766,-20577.725188,6217.729913,-77375.645298
602.148325,-2812.782580,8142.265362,-75230.577904
602.150884,10362.883188,10510.924376,-72166.195912
602.153443,3404.947333,9326.594869,-74464.482406
602.156002,-14508.036463,-1628.453072,-77375.645298
602.158561,24130.713709,2664.741391,-72625.853210
602.161120,296.082377,-9918.759623,-75996.673402
602.163679,5921.647536,1036.288319,-73851.606007
602.166238,5477.523971,-7402.059420,-76915.987999
602.168797,-2072.576638,5477.523971,-76303.111601
602.171355,2368.659014,-2072.576638,-76303.111601
602.173914,-6809.894666,5329.482782,-73545.167808
602.176473,23390.507767,-1480.411884,-74004.825107
602.179032,-8142.265362,-2960.823768,-77988.521696
602.181591,9030.512492,-6365.771101,-74924.139704
602.184150,9622.677246,2960.823768,-73238.729609
602.186709,10066.800811,6957.935855,-74158.044206
602.189268,-9622.677246,-6809.894666,-76762.768900
602.191827,4145.153275,5033.400406,-75230.577904
602.194386,8882.471304,11991.336260,-75843.454302
602.196945,10362.883188,3701.029710,-74311.263306
602.199504,7994.224174,148.041188,-74464.482406
602.202063,-10214.842000,-3108.864956,-76762.768900
602.204622,4441.235652,1332.370696,-74924.139704
602.207182,9770.718434,9030.512492,-74924.139704
602.209741,10510.924376,-4885.359217,-76149.892501
602.212300,8586.388927,1480.411884,-74004.825107
602.214860,19689.478057,-3256.906145,-75077.358804
602.217419,-9030.512492,7994.224174,-76609.549800
602.219978,1628.453072,-740.205942,-75077.358804
602.222537,1036.288319,4293.194464,-73698.386908
602.225097,20133.601622,1036.288319,-75690.235202
602.227656,-40711.326810,2960.823768,-80899.684589
602.230215,16876.695478,8882.471304,-75077.358804
602.232774,10362.883188,9770.718434,-73545.167808
602.235334,-740.205942,18653.189738,-74464.482406
602.237893,-21910.095883,296.082377,-79367.493593
602.240452,2960.823768,6513.812290,-74924.139704
602.243012,-9326.594869,-3108.864956,-75843.454302
602.245571,20873.807564,14656.077652,-70480.785816
602.248130,-4441.235652,3552.988522,-76149.892501
602.250689,-2664.741391,1924.535449,-74924.139704
602.253249,-4737.318029,-592.164754,-76149.892501
602.255808,4441.235652,12583.501014,-75383.797003
602.258367,-10658.965565,-296.082377,-76762.768900
602.260926,-14804.118840,2368.659014,-76609.549800
602.263486,-6217.729913,7846.182985,-74617.701505
602.266045,20873.807564,13323.706956,-71400.100414
602.268604,4885.359217,4145.153275,-72779.072310
602.271164,-1332.370696,-1628.453072,-75383.797003
602.273723,-2220.617826,10807.006753,-76762.768900
602.276282,-19097.313304,9178.553681,-77069.207099
602.278841,1332.370696,13323.706956,-73391.948708
602.281401,7994.224174,11547.212695,-73698.386908
602.283960,-5477.523971,5033.400406,-75843.454302
602.286519,-8438.347739,2664.741391,-75537.016103
602.289078,29016.072926,3256.906145,-72779.072310
602.291638,-11399.171507,-9474.636058,-78754.617194
602.294197,1776.494261,-1036.288319,-74924.139704
602.296756,14804.118840,-3997.112087,-74770.920605
602.299315,-1036.288319,9474.636058,-76149.892501
602.301874,-3997.112087,-5477.523971,-76915.987999
602.304433,-1480.411884,9474.636058,-72779.072310
602.306992,17172.777854,-6809.894666,-75843.454302
602.309551,-7402.059420,-4145.153275,-78448.178995
602.312110,10066.800811,-7994.224174,-75383.797003
602.314668,7105.977043,5773.606348,-73238.729609
602.317227,6069.688724,5329.482782,-74464.482406
602.319786,-4293.194464,-2516.700203,-75537.016103
602.322345,8142.265362,7846.182985,-74770.920605
602.324904,10658.965565,-296.082377,-74770.920605
602.327462,7698.141797,1480.411884,-74464.482406
602.330021,6513.812290,-2220.617826,-75383.797003
602.332580,-6513.812290,-296.082377,-75843.454302
602.335139,6661.853478,-1332.370696,-75690.235202
602.337698,8882.471304,3256.906145,-74924.139704
602.340256,12731.542202,-1924.535449,-76609.549800
602.342815,-444.123565,-7550.100608,-76149.892501
602.345374,22354.219448,888.247130,-72472.634111
602.347933,-9622.677246,1036.288319,-77222.426198
602.350492,1184.329507,-1776.494261,-75383.797003
602.353050,-8734.430116,-7846.182985,-76303.111601
602.355609,25315.043216,13471.748144,-71859.757712
602.358168,7254.018232,9622.677246,-73851.606007
602.360727,-11399.171507,6513.812290,-76762.768900
602.363286,888.247130,1480.411884,-74617.701505
602.365844,5477.523971,14211.954086,-72166.195912
602.368403,-6513.812290,-296.082377,-77835.302597
602.370962,-5625.565159,10658.965565,-76149.892501
602.373521,-6365.771101,-4737.318029,-77835.302597
602.376080,148.041188,5181.441594,-72932.291410
602.378638,14952.160028,11103.089130,-72166.195912
602.381197,3256.906145,8290.306550,-74004.825107
602.383756,-148.041188,-1184.329507,-75996.673402
602.386315,3108.864956,7698.141797,-74770.920605
602.388874,2072.576638,7846.182985,-76149.892501
602.391432,5329.482782,12879.583391,-75230.577904
602.393991,-1776.494261,12435.459826,-76149.892501
602.396550,-15248.242405,12287.418637,-75690.235202
602.399109,-3701.029710,8142.265362,-74464.482406
602.401668,2812.782580,7846.182985,-75230.577904
602.404227,-20281.642811,-4293.194464,-77222.426198
602.406786,13323.706956,1776.494261,-72779.072310
602.409344,888.247130,1184.329507,-74311.263306
602.411903,-2960.823768,2960.823768,-75383.797003
602.414462,-7550.100608,13619.789333,-74311.263306
602.417021,8882.471304,9918.759623,-75383.797003
602.419580,-8290.306550,-5625.565159,-78141.740796
602.422139,10510.924376,7254.018232,-74770.920605
602.424698,-7698.141797,-2368.659014,-77835.302597
602.427257,11251.130318,5181.441594,-73545.167808
602.429816,3108.864956,-3256.906145,-73545.167808
602.432375,10214.842000,6809.894666,-73545.167808
602.434934,-4145.153275,-8734.430116,-78907.836294
602.437492,5033.400406,-4441.235652,-76149.892501
602.440051,8882.471304,-5921.647536,-74311.263306
602.442610,3701.029710,9326.594869,-74311.263306
602.445169,1184.329507,0.000000,-75230.577904
602.447728,10214.842000,4441.235652,-75383.797003
602.450287,5181.441594,2960.823768,-74311.263306
602.452846,9918.759623,4885.359217,-75996.673402
602.455405,-1332.370696,-1036.288319,-75077.358804
602.457964,2368.659014,1184.329507,-75230.577904
602.460523,3404.947333,-888.247130,-74158.044206
602.463081,3701.029710,-5329.482782,-74924.139704
602.465640,6661.853478,-5181.441594,-75537.016103
602.468199,14508.036463,296.082377,-75690.235202
602.470758,1924.535449,-12139.377449,-77222.426198
602.473317,12287.418637,1184.329507,-73545.167808
602.475876,-3256.906145,-2368.659014,-75230.577904
602.478435,-592.164754,1332.370696,-75077.358804
602.480994,-9326.594869,-11991.336260,-79980.369991
602.483553,-4293.194464,11547.212695,-74311.263306
602.486111,15988.448347,11843.295072,-73085.510509
602.488669,-6365.771101,12139.377449,-75383.797003
602.491228,-1332.370696,-1776.494261,-75383.797003
602.493786,1480.411884,10066.800811,-73085.510509
602.496344,-296.082377,0.000000,-76303.111601
602.498903,-6217.729913,11399.171507,-76609.549800
602.501461,-6365.771101,-1480.411884,-77375.645298
602.504019,-6365.771101,4441.235652,-74158.044206
602.506578,11695.253884,9030.512492,-71706.538613
602.509136,8882.471304,6809.894666,-72625.853210
602.511695,-2812.782580,-5033.400406,-76915.987999
602.514253,296.082377,444.123565,-75383.797003
602.516811,10214.842000,-3849.070898,-75690.235202
602.519370,592.164754,-6069.688724,-75996.673402
602.521928,-8290.306550,444.123565,-73238.729609
602.524486,5477.523971,12139.377449,-72472.634111
602.527045,-1628.453072,2960.823768,-74464.482406
602.529603,296.082377,10658.965565,-73698.386908
602.532161,-6069.688724,7698.141797,-77222.426198
602.534720,-19689.478057,4441.235652,-78448.178995
602.537278,2516.700203,6957.935855,-74464.482406
602.539836,3256.906145,16580.613101,-73085.510509
602.542395,-14656.077652,-1332.370696,-77222.426198
602.544953,4885.359217,4145.153275,-75537.016103
602.547511,15692.365970,-5033.400406,-75537.016103
602.550070,-2220.617826,-3997.112087,-75996.673402
602.552628,21021.848753,-6365.771101,-73238.729609
602.555186,3404.947333,3701.029710,-73698.386908
602.557745,1924.535449,-888.247130,-75537.016103
602.560303,-10807.006753,1332.370696,-75383.797003
602.562861,20873.807564,-2368.659014,-74004.825107
602.565420,-2812.782580,-1924.535449,-79061.055394
602.567978,592.164754,-7254.018232,-76456.330700
602.570536,10066.800811,-1036.288319,-72166.195912
602.573095,14508.036463,12879.583391,-72319.415011
602.575653,11547.212695,7846.182985,-74004.825107
602.578211,-3256.906145,1776.494261,-76762.768900
602.580770,-3552.988522,-296.082377,-77835.302597
602.583328,7254.018232,11695.253884,-74311.263306
602.585886,3701.029710,1480.411884,-74311.263306
602.588445,2812.782580,888.247130,-73085.510509
602.591003,5773.606348,-1924.535449,-74770.920605
602.593561,14063.912898,1332.370696,-75077.358804
602.596120,-592.164754,-9178.553681,-77682.083497
602.598678,18505.148550,592.164754,-73545.167808
602.601236,-4885.359217,-1776.494261,-75996.673402
602.603795,3849.070898,444.123565,-74158.044206
602.606353,-10510.924376,-13915.871710,-76915.987999
602.608911,1924.535449,10510.924376,-74004.825107
602.611469,12139.377449,8290.306550,-74924.139704
602.614028,-6661.853478,12731.542202,-75230.577904
602.616586,3404.947333,2072.576638,-74158.044206
602.619144,-740.205942,11103.089130,-72472.634111
602.621703,-3108.864956,1036.288319,-75996.673402
602.624261,-888.247130,10955.047942,-75537.016103
602.626819,-8142.265362,-4293.194464,-77835.302597
602.629377,1628.453072,2368.659014,-74004.825107
602.631936,9474.636058,10066.800811,-73238.729609
602.634494,1480.411884,4737.318029,-74158.044206
602.637052,-9326.594869,-10807.006753,-77682.083497
602.639611,-6365.771101,1184.329507,-75690.235202
602.642169,20281.642811,9622.677246,-74770.920605
602.644727,12731.542202,3701.029710,-76149.892501
602.647285,-16284.530724,2960.823768,-75537.016103
602.649844,-2812.782580,13619.789333,-74004.825107
602.652402,2960.823768,16728.654289,-74770.920605
602.654960,-18357.107362,4885.359217,-76149.892501
602.657519,9326.594869,3849.070898,-74004.825107
602.660077,-2072.576638,5477.523971,-76456.330700
602.662635,-2220.617826,1628.453072,-75383.797003
602.665194,-3849.070898,15544.324782,-73545.167808
602.667752,-740.205942,6809.894666,-74770.920605
602.670310,-10510.924376,-2368.659014,-77835.302597
602.672868,18949.272115,4293.194464,-75077.358804
602.675427,-6513.812290,-3256.906145,-78294.959896
602.677985,11547.212695,2220.617826,-74158.044206
602.680543,4293.194464,-148.041188,-72625.853210
602.683102,13471.748144,11547.212695,-72932.291410
602.685660,-11991.336260,-4441.235652,-78754.617194
602.688218,12731.542202,-296.082377,-74924.139704
602.690747,8142.265362,-3108.864956,-76303.111601
602.693277,6513.812290,6069.688724,-75077.358804
602.695806,4145.153275,-2664.741391,-73085.510509
602.698335,7402.059420,1628.453072,-72012.976812
602.700864,2072.576638,-3552.988522,-75537.016103
602.703394,18949.272115,6069.688724,-75230.577904
602.705923,2220.617826,-13619.789333,-78448.178995
602.708452,-4441.235652,-5181.441594,-75230.577904
602.710982,13619.789333,-444.123565,-73238.729609
602.713511,4589.276840,4293.194464,-72625.853210
602.716040,12583.501014,-3256.906145,-74158.044206
602.718569,740.205942,-1036.288319,-75537.016103
602.721099,30348.443622,1628.453072,-75537.016103
602.723628,-12879.583391,5921.647536,-77988.521696
602.726157,4737.318029,-740.205942,-73238.729609
602.728686,-11251.130318,-1184.329507,-73851.606007
602.731216,23686.590144,14656.077652,-71246.881314
602.733745,-11991.336260,4737.318029,-78754.617194
602.736274,-8586.388927,5329.482782,-76762.768900
602.738804,7698.141797,6365.771101,-74311.263306
602.741333,1924.535449,17468.860231,-72319.415011
602.743862,-14656.077652,-740.205942,-76762.768900
602.746391,-5625.565159,6069.688724,-76149.892501
602.748921,-5181.441594,740.205942,-76149.892501
602.751450,18653.189738,16580.613101,-73391.948708
602.753979,-10066.800811,6365.771101,-77528.864398
602.756508,-7254.018232,3108.864956,-74004.825107
602.759038,-3997.112087,5329.482782,-72932.291410
602.761567,13915.871710,21317.931130,-74311.263306
602.764096,17912.983796,6661.853478,-75230.577904
602.766626,740.205942,-5921.647536,-77988.521696
602.769155,-20577.725188,-5773.606348,-76762.768900
602.771684,5773.606348,12435.459826,-72932.291410
602.774213,8438.347739,23390.507767,-71553.319513
602.776743,-17024.736666,5477.523971,-75537.016103
602.779272,-2072.576638,6069.688724,-75383.797003
602.781801,7550.100608,11695.253884,-75230.577904
602.784330,-3552.988522,5625.565159,-76762.768900
602.786860,-9622.677246,9178.553681,-75537.016103
602.789389,5477.523971,5477.523971,-72472.634111
602.791924,444.123565,-2960.823768,-74924.139704
602.794458,21465.972318,2812.782580,-74004.825107
602.796993,-9326.594869,-6661.853478,-80899.684589
602.799528,5033.400406,2072.576638,-74924.139704
602.802062,11251.130318,1184.329507,-70940.443115
602.804597,10510.924376,12583.501014,-71859.757712
602.807131,-13027.624579,-7846.182985,-79061.055394
602.809666,6365.771101,-4145.153275,-75690.235202
602.812201,12583.501014,-4145.153275,-75077.358804
602.814735,6217.729913,7105.977043,-76762.768900
602.817270,-2516.700203,-9474.636058,-75690.235202
602.819805,4737.318029,-2072.576638,-71246.881314
602.822339,3701.029710,6809.894666,-72932.291410
602.824874,18949.272115,10362.883188,-74311.263306
602.827409,16284.530724,444.123565,-76149.892501
602.829943,-5773.606348,-6957.935855,-77222.426198
602.832478,4885.359217,-4293.194464,-74770.920605
602.835013,12139.377449,4293.194464,-72319.415011
602.837547,13767.830521,4589.276840,-73238.729609
602.840082,740.205942,-5477.523971,-78448.178995
602.842616,14211.954086,-592.164754,-75996.673402
602.845151,10362.883188,4441.235652,-75537.016103
602.847686,-740.205942,10658.965565,-74617.701505
602.850220,-6661.853478,-11399.171507,-75690.235202
602.852755,5921.647536,11695.253884,-70940.443115
602.855290,24870.919651,14804.118840,-72166.195912
602.857824,3997.112087,11991.336260,-75996.673402
602.860359,-3701.029710,-444.123565,-76762.768900
602.862894,-4737.318029,4589.276840,-73698.386908
602.865428,8142.265362,6809.894666,-71859.757712
602.867963,-7402.059420,9474.636058,-75077.358804
602.870498,-11695.253884,1332.370696,-77222.426198
602.873032,296.082377,2516.700203,-75843.454302
602.875567,11991.336260,12287.418637,-74770.920605
602.878101,5181.441594,11251.130318,-73391.948708
602.880636,2960.823768,444.123565,-74770.920605
602.883171,-13027.624579,9622.677246,-74464.482406
602.885705,2960.823768,8734.430116,-78141.740796
602.888240,5181.441594,18505.148550,-76609.549800
602.890775,4145.153275,14656.077652,-74311.263306
602.893314,-888.247130,5033.400406,-74464.482406
602.895854,-22502.260637,3404.947333,-74617.701505
602.898394,10214.842000,7402.059420,-72166.195912
602.900933,-8734.430116,6365.771101,-77835.302597
602.903473,-7402.059420,888.247130,-78907.836294
602.906012,888.247130,14359.995275,-75383.797003
602.908552,2960.823768,9326.594869,-73851.606007
602.911092,2516.700203,10214.842000,-73238.729609
602.913631,6069.688724,-6513.812290,-76303.111601
602.916171,-8290.306550,-5921.647536,-79367.493593
602.918711,23094.425390,-1332.370696,-73391.948708
602.921250,10658.965565,1480.411884,-73545.167808
602.923790,5773.606348,5921.647536,-75230.577904
602.926329,-14211.954086,-4441.235652,-75843.454302
602.928869,19393.395680,-2516.700203,-70940.443115
602.931409,6661.853478,1184.329507,-76609.549800
602.933948,4589.276840,2812.782580,-78601.398095
602.936488,740.205942,-4737.318029,-75843.454302
602.939028,11991.336260,296.082377,-71859.757712
602.941567,0.000000,6809.894666,-72319.415011
602.944107,13027.624579,-4737.318029,-75077.358804
602.946646,0.000000,-11399.171507,-78448.178995
602.949186,-740.205942,-8438.347739,-77682.083497
602.951726,10510.924376,-3849.070898,-75383.797003
602.954265,15100.201217,3552.988522,-71553.319513
602.956805,6957.935855,4737.318029,-72166.195912
602.959345,9474.636058,-888.247130,-75843.454302
602.961884,2220.617826,7550.100608,-76762.768900
602.964424,13323.706956,7550.100608,-75383.797003
602.966963,-740.205942,14656.077652,-75077.358804
602.969503,2072.576638,-9326.594869,-76149.892501
602.972043,-13027.624579,8438.347739,-71859.757712
602.974582,24870.919651,14952.160028,-70634.004916
602.977122,-10807.006753,9326.594869,-76303.111601
602.979662,-8734.430116,5773.606348,-77988.521696
602.982201,-296.082377,1628.453072,-74770.920605
602.984741,12287.418637,6365.771101,-71553.319513
602.987280,-6957.935855,7846.182985,-74617.701505
602.989820,-16728.654289,-296.082377,-76762.768900
602.992360,-7550.100608,-3404.947333,-76456.330700
602.994875,14211.954086,13471.748144,-74770.920605
602.997389,-740.205942,-3997.112087,-74617.701505
602.999904,1036.288319,1332.370696,-72625.853210
603.002419,1776.494261,2072.576638,-73851.606007
603.004934,4885.359217,11103.089130,-73698.386908
603.007449,5181.441594,9326.594869,-77069.207099
603.009964,296.082377,-5477.523971,-76303.111601
603.012479,-6069.688724,8586.388927,-73545.167808
603.014994,-5477.523971,17616.901420,-75383.797003
603.017509,-16432.571912,9178.553681,-75230.577904
603.020024,-5625.565159,6365.771101,-75843.454302
603.022539,1628.453072,4737.318029,-76456.330700
603.025053,1332.370696,5033.400406,-75383.797003
603.027568,15100.201217,-444.123565,-74004.825107
603.030083,-14063.912898,-7254.018232,-77375.645298
603.032598,15988.448347,4145.153275,-72166.195912
603.035113,-740.205942,-2072.576638,-77988.521696
603.037628,740.205942,3849.070898,-76915.987999
603.040143,-4293.194464,-2960.823768,-76303.111601
603.042658,7846.182985,13619.789333,-71706.538613
603.045173,4145.153275,-444.123565,-76149.892501
603.047688,-9474.636058,-5625.565159,-77375.645298
603.050203,12435.459826,-11991.336260,-74311.263306
603.052717,13619.789333,6217.729913,-73085.510509
603.055232,444.123565,-2220.617826,-76762.768900
603.057747,1480.411884,5625.565159,-72779.072310
603.060262,2664.741391,1776.494261,-73698.386908
603.062777,5477.523971,1480.411884,-75996.673402
603.065292,5181.441594,1628.453072,-77222.426198
603.067807,-3849.070898,-296.082377,-78141.740796
603.070322,4737.318029,-5181.441594,-75537.016103
603.072837,13027.624579,6809.894666,-73238.729609
603.075352,10214.842000,-2664.741391,-74464.482406
603.077867,6365.771101,888.247130,-74770.920605
603.080381,12435.459826,-2516.700203,-75843.454302
603.082896,1184.329507,6809.894666,-76149.892501
603.085411,-8734.430116,-16728.654289,-78601.398095
603.087926,5773.606348,10510.924376,-70327.566716
603.090441,13027.624579,10510.924376,-71859.757712
603.092956,-14804.118840,6365.771101,-76762.768900
603.095480,1924.535449,1924.535449,-76149.892501
603.098004,3108.864956,14508.036463,-74004.825107
603.100528,7698.141797,7254.018232,-74311.263306
603.103052,-9030.512492,4589.276840,-76609.549800
603.105576,-18653.189738,-1036.288319,-75690.235202
603.108100,7698.141797,9622.677246,-74004.825107
603.110624,4441.235652,9326.594869,-76149.892501
603.113148,-5773.606348,-2960.823768,-76609.549800
603.115672,-8438.347739,-3256.906145,-75843.454302
603.118196,6809.894666,10807.006753,-72166.195912
603.120720,18505.148550,8290.306550,-72472.634111
603.123244,3108.864956,4885.359217,-76456.330700
603.125768,-21021.848753,-2516.700203,-78754.617194
603.128292,-9622.677246,13027.624579,-75996.673402
603.130816,-1480.411884,23538.548956,-74004.825107
603.133340,-7105.977043,10066.800811,-74464.482406
603.135864,-13471.748144,1924.535449,-76609.549800
603.138388,2664.741391,2368.659014,-75230.577904
603.140912,6957.935855,6365.771101,-72932.291410
603.143436,18653.189738,592.164754,-74617.701505
603.145960,-16580.613101,-12731.542202,-79061.055394
603.148484,18209.066173,592.164754,-71553.319513
603.151008,11547.212695,-1184.329507,-74924.139704
603.153532,-9326.594869,2812.782580,-78294.959896
603.156056,1036.288319,-1036.288319,-74617.701505
603.158580,16284.530724,10362.883188,-71553.319513
603.161104,-2368.659014,-4885.359217,-74924.139704
603.163628,-9622.677246,-7550.100608,-79061.055394
603.166152,5181.441594,-9030.512492,-75537.016103
603.168676,12731.542202,6217.729913,-72779.072310
603.171200,10362.883188,4737.318029,-76915.987999
603.173724,-19541.436869,-16136.489536,-78294.959896
603.176248,-19245.354492,-17764.942608,-75077.358804
603.178772,44708.438897,11695.253884,-70021.128517
603.181296,23390.507767,-11695.253884,-75383.797003
603.183820,-20429.683999,-26499.372724,-79214.274493
603.186344,9030.512492,-7698.141797,-75537.016103
603.188868,18653.189738,21317.931130,-71400.100414
603.191392,11991.336260,6217.729913,-75690.235202
603.193916,-9178.553681,11399.171507,-78141.740796
603.196447,296.082377,296.082377,-76303.111601
603.198979,3404.947333,888.247130,-74464.482406
603.201511,11399.171507,-1036.288319,-75077.358804
603.204043,-37750.503042,-4293.194464,-79520.712692
603.206575,13471.748144,11103.089130,-71859.757712
603.209107,11103.089130,13175.665768,-73391.948708
603.211639,-5033.400406,12879.583391,-75077.358804
603.214171,-10955.047942,1184.329507,-77528.864398
603.216703,7994.224174,5181.441594,-73851.606007
603.219235,3256.906145,5329.482782,-74004.825107
603.221766,-13915.871710,592.164754,-75996.673402
603.224298,-6069.688724,1480.411884,-75230.577904
603.226830,4145.153275,-3701.029710,-76303.111601
603.229362,1036.288319,12139.377449,-74464.482406
603.231894,9622.677246,7846.182985,-74924.139704
603.234426,-3552.988522,6217.729913,-74924.139704
603.236958,-16728.654289,1480.411884,-77375.645298
603.239490,592.164754,6217.729913,-73851.606007
603.242022,10214.842000,15692.365970,-72625.853210
603.244554,5773.606348,7846.182985,-74770.920605
603.247085,-21021.848753,-1628.453072,-76762.768900
603.249617,2960.823768,6957.935855,-73238.729609
603.252149,-6365.771101,12139.377449,-74311.263306
603.254681,-3108.864956,11695.253884,-75537.016103
603.257213,-888.247130,296.082377,-77528.864398
603.259745,-444.123565,-740.205942,-76303.111601
603.262277,15544.324782,3404.947333,-73851.606007
603.264809,1184.329507,-2664.741391,-77222.426198
603.267341,5477.523971,-3552.988522,-74924.139704
603.269873,9918.759623,1776.494261,-72166.195912
603.272404,10807.006753,10510.924376,-74311.263306
603.274936,-11547.212695,-2960.823768,-79061.055394
603.277468,7846.182985,-6957.935855,-74158.044206
603.280000,9918.759623,-3256.906145,-73851.606007
603.282532,4145.153275,-2516.700203,-76303.111601
603.285064,6513.812290,6069.688724,-76456.330700
603.287596,-2072.576638,-3997.112087,-75537.016103
603.290128,-9030.512492,740.205942,-75843.454302
603.292660,17468.860231,12139.377449,-74924.139704
603.295192,1480.411884,296.082377,-77069.207099
603.297730,-2664.741391,-8438.347739,-76609.549800
603.300268,12879.583391,-1924.535449,-74464.482406
603.302806,15396.283594,7254.018232,-71246.881314
603.305344,16284.530724,-2664.741391,-74617.701505
603.307882,-9770.718434,4441.235652,-77222.426198
603.310420,9770.718434,2516.700203,-74924.139704
603.312958,2072.576638,11991.336260,-74924.139704
603.315497,1776.494261,-6069.688724,-77682.083497
603.318035,-36862.255912,3108.864956,-78294.959896
603.320573,10955.047942,12287.418637,-71246.881314
603.323111,8734.430116,10955.047942,-74311.263306
603.325649,-9918.759623,11103.089130,-76915.987999
603.328187,-7105.977043,444.123565,-76915.987999
603.330725,6513.812290,6365.771101,-73238.729609
603.333263,3849.070898,6809.894666,-74158.044206
603.335801,-18801.230927,1628.453072,-75690.235202
603.338340,888.247130,-1184.329507,-74770.920605
603.340878,296.082377,3108.864956,-77069.207099
603.343416,-3404.947333,-444.123565,-75537.016103
603.345954,3404.947333,296.082377,-74311.263306
603.348492,3997.112087,3701.029710,-74617.701505
603.351030,-5477.523971,2960.823768,-74464.482406
603.353568,11103.089130,6513.812290,-74617.701505
603.356106,-11695.253884,9030.512492,-75843.454302
603.358645,6069.688724,2812.782580,-74924.139704
603.361183,-18061.024985,5181.441594,-76609.549800
603.363721,-1036.288319,6513.812290,-74311.263306
603.366259,-9474.636058,6809.894666,-75230.577904
603.368797,1480.411884,6513.812290,-74004.825107
603.371335,15988.448347,5477.523971,-74004.825107
603.373873,-2220.617826,-9030.512492,-77528.864398
603.376411,13767.830521,-1776.494261,-74617.701505
603.378949,22798.343014,-9918.759623,-73238.729609
603.381488,1480.411884,3256.906145,-75843.454302
603.384026,-6069.688724,-2812.782580,-76915.987999
603.386564,7846.182985,9770.718434,-72625.853210
603.389102,4441.235652,-148.041188,-76456.330700
603.391640,-5625.565159,-3404.947333,-78448.178995
603.394178,6809.894666,-8882.471304,-74617.701505
603.396716,11695.253884,-2220.617826,-73391.948708
603.399260,-1480.411884,-888.247130,-75230.577904
603.401803,1924.535449,2368.659014,-73851.606007
603.404347,11695.253884,-888.247130,-74311.263306
603.406890,5033.400406,1184.329507,-76762.768900
603.409434,-888.247130,-11251.130318,-77069.207099
603.411977,6069.688724,-8734.430116,-75843.454302
603.414521,8438.347739,9326.594869,-73851.606007
603.417064,11991.336260,2516.700203,-74311.263306
603.419608,2516.700203,1628.453072,-74770.920605
603.422151,10658.965565,2368.659014,-75383.797003
603.424695,7994.224174,7402.059420,-76149.892501
603.427238,-5921.647536,-14508.036463,-78907.836294
603.429782,3701.029710,9178.553681,-70787.224015
603.432325,12879.583391,11251.130318,-71706.538613
603.434869,-14211.954086,8142.265362,-76303.111601
603.437412,296.082377,4737.318029,-76456.330700
603.439956,-1776.494261,3849.070898,-74770.920605
603.442499,9326.594869,4737.318029,-74770.920605
603.445043,-10658.965565,1480.411884,-77528.864398
603.447586,-13175.665768,10807.006753,-73545.167808
603.450130,11695.253884,17468.860231,-73391.948708
603.452673,-5773.606348,9178.553681,-76456.330700
603.455217,-6365.771101,-12435.459826,-76915.987999
603.457760,-2664.741391,6661.853478,-73238.729609
603.460304,40711.326810,20725.766376,-68795.375720
603.462847,13767.830521,5477.523971,-74924.139704
603.465391,-38490.708984,-3997.112087,-79980.369991
603.467934,-35825.967593,14952.160028,-78601.398095
603.470478,6365.771101,28571.949361,-76762.768900
603.473021,-592.164754,26795.455100,-75077.358804
603.475565,-14508.036463,8142.265362,-75996.673402
603.478108,-11547.212695,-4145.153275,-75537.016103
603.480652,11843.295072,3997.112087,-71246.881314
603.483195,29016.072926,-444.123565,-72932.291410
603.485739,-19541.436869,-12879.583391,-79827.150892
603.488282,9474.636058,-888.247130,-76303.111601
603.490826,7254.018232,6513.812290,-75230.577904
603.493369,2072.576638,6809.894666,-74924.139704
603.495913,-3108.864956,3404.947333,-73851.606007
603.498457,21169.889941,7402.059420,-72932.291410
603.501005,1332.370696,-3701.029710,-78448.178995
603.503553,-592.164754,-7698.141797,-77222.426198
603.506102,7846.182985,-13027.624579,-74617.701505
603.508650,12879.583391,12435.459826,-71859.757712
603.511198,-1628.453072,-3108.864956,-76915.987999
603.513747,-7105.977043,2960.823768,-74158.044206
603.516295,13027.624579,2368.659014,-74004.825107
603.518844,16876.695478,7402.059420,-75537.016103
603.521392,-8734.430116,-10955.047942,-78601.398095
603.523940,6661.853478,-5625.565159,-74924.139704
603.526489,12731.542202,10362.883188,-72472.634111
603.529037,17468.860231,0.000000,-73698.386908
603.531586,-4441.235652,-148.041188,-75077.358804
603.534134,10214.842000,296.082377,-75077.358804
603.536682,5477.523971,7994.224174,-75383.797003
603.539231,6365.771101,-9474.636058,-78601.398095
603.541779,-35974.008781,-296.082377,-76762.768900
603.544328,28423.908173,14063.912898,-68182.499322
603.546876,-1480.411884,15100.201217,-74158.044206
603.549424,-2664.741391,1184.329507,-76915.987999
603.551973,-5625.565159,1776.494261,-76303.111601
603.554521,11251.130318,6365.771101,-74004.825107
603.557070,-3849.070898,3552.988522,-75843.454302
603.559618,-9326.594869,11695.253884,-72779.072310
603.562166,6513.812290,9770.718434,-75077.358804
603.564715,-2516.700203,9178.553681,-76609.549800
603.567263,3552.988522,10362.883188,-75843.454302
603.569812,2812.782580,15396.283594,-75077.358804
603.572360,5181.441594,16876.695478,-73851.606007
603.574908,-2664.741391,13471.748144,-75077.358804
603.577457,-6513.812290,23538.548956,-73851.606007
603.580005,888.247130,18357.107362,-75690.235202
603.582553,-16432.571912,5477.523971,-76149.892501
603.585102,1332.370696,1480.411884,-76303.111601
603.587650,-12879.583391,9178.553681,-74924.139704
603.590199,3701.029710,7402.059420,-74770.920605
603.592747,-20873.807564,7698.141797,-76456.330700
603.595295,28275.866984,5773.606348,-75077.358804
603.597844,9918.759623,-2368.659014,-76303.111601
603.600392,9030.512492,-5477.523971,-76456.330700
603.602944,13175.665768,-9030.512492,-73698.386908
603.605496,13027.624579,3404.947333,-71706.538613
603.608048,-3997.112087,-6809.894666,-76303.111601
603.610600,-3552.988522,5477.523971,-74004.825107
603.613152,12583.501014,-3701.029710,-75996.673402
603.615704,-2516.700203,-1924.535449,-77988.521696
603.618256,3404.947333,-7550.100608,-76303.111601
603.620808,10955.047942,2220.617826,-70940.443115
603.623360,10807.006753,7846.182985,-71706.538613
603.625912,-592.164754,-1036.288319,-74770.920605
603.628463,7402.059420,-1628.453072,-76149.892501
603.631015,9770.718434,-9474.636058,-77069.207099
603.633567,6365.771101,-6809.894666,-76149.892501
603.636119,7550.100608,-444.123565,-74158.044206
603.638671,10066.800811,1332.370696,-73238.729609
603.641223,10955.047942,740.205942,-72166.195912
603.643775,15544.324782,3108.864956,-74004.825107
603.646327,5477.523971,-296.082377,-78448.178995
603.648879,-6217.729913,-14656.077652,-79214.274493
603.651431,14952.160028,9030.512492,-70787.224015
603.653983,-6661.853478,11251.130318,-73851.606007
603.656535,-13619.789333,8734.430116,-74004.825107
603.659087,1332.370696,0.000000,-76303.111601
603.661639,-8734.430116,4441.235652,-77375.645298
603.664191,4589.276840,5477.523971,-76303.111601
603.666742,-3552.988522,4885.359217,-75690.235202
603.669294,-4441.235652,13175.665768,-73085.510509
603.671846,-8734.430116,4145.153275,-75537.016103
603.674398,1628.453072,1776.494261,-74311.263306
603.676950,11251.130318,5921.647536,-75077.358804
603.679502,10955.047942,7698.141797,-76149.892501
603.682054,-7402.059420,6365.771101,-76915.987999
603.684606,-20133.601622,-2072.576638,-75843.454302
603.687158,5921.647536,10066.800811,-73545.167808
603.689710,8882.471304,26647.413912,-74464.482406
603.692262,-7105.977043,13619.789333,-75843.454302
603.694814,-8290.306550,-5625.565159,-77682.083497
603.697366,-8142.265362,8734.430116,-74464.482406
603.699918,8734.430116,14211.954086,-72932.291410
603.702469,-21910.095883,3997.112087,-76762.768900
603.705025,12583.501014,3849.070898,-73085.510509
603.707580,18061.024985,-1924.535449,-75383.797003
603.710136,5477.523971,-7105.977043,-76915.987999
603.712691,19245.354492,-14952.160028,-74770.920605
603.715246,2664.741391,148.041188,-73238.729609
603.717801,-1480.411884,-6217.729913,-74924.139704
603.720356,-9474.636058,2220.617826,-75537.016103
603.722912,21021.848753,-3108.864956,-75230.577904
603.725467,-8438.347739,-3256.906145,-79520.712692
603.728022,6217.729913,-592.164754,-75690.235202
603.730577,15988.448347,9178.553681,-70634.004916
603.733132,12435.459826,8290.306550,-71400.100414
603.735688,-5181.441594,1628.453072,-75077.358804
603.738243,4885.359217,4441.235652,-76915.987999
603.740798,1332.370696,2368.659014,-80593.246390
603.743353,2812.782580,-3552.988522,-77682.083497
603.745908,5329.482782,5033.400406,-73851.606007
603.748464,15544.324782,-2220.617826,-72932.291410
603.751019,296.082377,3849.070898,-75077.358804
603.753574,5773.606348,3404.947333,-75690.235202
603.756129,10807.006753,6809.894666,-76456.330700
603.758684,1776.494261,-7846.182985,-80440.027290
603.761239,-26943.496289,-148.041188,-77222.426198
603.763795,17024.736666,14656.077652,-68182.499322
603.766350,-296.082377,12287.418637,-72319.415011
603.768905,148.041188,3849.070898,-75996.673402
603.771460,-8734.430116,-740.205942,-78601.398095
603.774015,8438.347739,5033.400406,-75690.235202
603.776571,-888.247130,2664.741391,-75996.673402
603.779126,-5329.482782,15544.324782,-72319.415011
603.781681,-8142.265362,9326.594869,-75230.577904
603.784236,-6809.894666,14359.995275,-75690.235202
603.786794,6365.771101,-5033.400406,-77069.207099
603.789351,3997.112087,7402.059420,-76762.768900
603.791909,1184.329507,3849.070898,-74617.701505
603.794466,1776.494261,14952.160028,-71246.881314
603.797023,-8142.265362,10066.800811,-72779.072310
603.799581,3849.070898,13619.789333,-72779.072310
603.802138,-5773.606348,6365.771101,-78294.959896
603.804696,-3849.070898,4737.318029,-76609.549800
603.807253,-11991.336260,2812.782580,-75843.454302
603.809811,7994.224174,15100.201217,-69561.471218
603.812368,20133.601622,4145.153275,-70634.004916
603.814926,-2516.700203,-3997.112087,-76609.549800
603.817483,11399.171507,-5625.565159,-78141.740796
603.820041,5625.565159,-2368.659014,-78294.959896
603.822598,6365.771101,3108.864956,-74924.139704
603.825156,2072.576638,5773.606348,-72012.976812
603.827713,9030.512492,11251.130318,-72166.195912
603.830270,-10362.883188,-4441.235652,-77835.302597
603.832828,13619.789333,-4885.359217,-76149.892501
603.835385,8586.388927,-7698.141797,-77375.645298
603.837943,6957.935855,7846.182985,-75537.016103
603.840500,2220.617826,-2368.659014,-74158.044206
603.843058,-2072.576638,888.247130,-71400.100414
603.845615,-13915.871710,1776.494261,-75690.235202
603.848173,28275.866984,2072.576638,-75537.016103
603.850730,9326.594869,-6069.688724,-78754.617194
603.853288,4885.359217,-8438.347739,-76915.987999
603.855845,4885.359217,-10510.924376,-75537.016103
603.858402,16432.571912,2072.576638,-69255.033019
603.860960,13471.748144,1332.370696,-73085.510509
603.863517,1036.288319,3997.112087,-77375.645298
603.866075,888.247130,-18801.230927,-80440.027290
603.868632,27091.537477,14656.077652,-71859.757712
603.871190,-25611.125593,2516.700203,-77375.645298
603.873747,-17764.942608,12583.501014,-72779.072310
603.876305,-1332.370696,-1776.494261,-75077.358804
603.878862,4737.318029,18801.230927,-74311.263306
603.881420,-296.082377,-148.041188,-79061.055394
603.883977,-6217.729913,5625.565159,-76762.768900
603.886534,-1480.411884,3849.070898,-73851.606007
603.889094,-7846.182985,10955.047942,-71553.319513
603.891654,16876.695478,15692.365970,-71400.100414
603.894213,12287.418637,9178.553681,-76609.549800
603.896773,-4293.194464,3552.988522,-78601.398095
603.899333,-10066.800811,13619.789333,-77835.302597
603.901892,4145.153275,28275.866984,-72779.072310
603.904452,-9326.594869,22650.301825,-72319.415011
603.907011,-7254.018232,5773.606348,-74004.825107
603.909571,-8290.306550,-740.205942,-77988.521696
603.912131,1036.288319,4589.276840,-77528.864398
603.914690,-6809.894666,-2664.741391,-77375.645298
603.917250,-2072.576638,10510.924376,-72166.195912
603.919809,9770.718434,4589.276840,-71859.757712
603.922369,-5033.400406,3404.947333,-75230.577904
603.924929,8290.306550,-888.247130,-77528.864398
603.927488,5921.647536,148.041188,-77988.521696
603.930048,15100.201217,296.082377,-74770.920605
603.932608,7698.141797,5329.482782,-72012.976812
603.935167,4441.235652,888.247130,-73545.167808
603.937727,-13323.706956,-3701.029710,-77069.207099
603.940286,10807.006753,-4589.276840,-76149.892501
603.942846,9326.594869,-3404.947333,-76762.768900
603.945406,6365.771101,148.041188,-76303.111601
603.947965,9622.677246,3701.029710,-72625.853210
603.950525,2368.659014,6661.853478,-70174.347617
603.953085,2664.741391,-888.247130,-73698.386908
603.955644,6957.935855,148.041188,-77988.521696
603.958204,-3552.988522,-6365.771101,-80746.465489
603.960763,6365.771101,1184.329507,-76762.768900
603.963323,17912.983796,-2368.659014,-74158.044206
603.965883,7254.018232,-148.041188,-71093.662214
603.968442,11843.295072,1480.411884,-71400.100414
603.971002,3849.070898,7105.977043,-77222.426198
603.973561,8586.388927,-10807.006753,-82431.875585
603.976121,-17912.983796,2516.700203,-78448.178995
603.978681,17024.736666,11547.212695,-70174.347617
603.981240,-11547.212695,7254.018232,-72319.415011
603.983800,-1184.329507,3849.070898,-72779.072310
603.986360,-6661.853478,3404.947333,-76915.987999
603.988919,6365.771101,3849.070898,-77375.645298
603.991451,-2072.576638,1480.411884,-78601.398095
603.993984,-888.247130,8882.471304,-73851.606007
603.996516,-11843.295072,6069.688724,-72166.195912
603.999048,7550.100608,13175.665768,-71706.538613
604.001581,4293.194464,-3701.029710,-77375.645298
604.004113,-4589.276840,-3849.070898,-78294.959896
604.006645,5773.606348,6513.812290,-76456.330700
604.009177,296.082377,18061.024985,-72319.415011
604.011710,888.247130,9770.718434,-70327.566716
604.014242,-9622.677246,9622.677246,-73238.729609
604.016774,-10066.800811,1480.411884,-76915.987999
604.019307,-5625.565159,7105.977043,-78141.740796
604.021839,740.205942,7254.018232,-76149.892501
604.024371,-11103.089130,4441.235652,-75230.577904
604.026904,21317.931130,6365.771101,-68642.156621
604.029436,-592.164754,-8586.388927,-74311.263306
604.031968,6513.812290,-7254.018232,-76915.987999
604.034500,28423.908173,-12287.418637,-76303.111601
604.037033,6513.812290,3849.070898,-75996.673402
604.039565,-2960.823768,-3256.906145,-75383.797003
604.042097,1036.288319,10066.800811,-70327.566716
604.044630,2812.782580,3404.947333,-74924.139704
604.047162,-7402.059420,-444.123565,-78448.178995
604.049694,12879.583391,-8438.347739,-77528.864398
604.052226,12139.377449,2812.782580,-74617.701505
604.054759,12583.501014,1184.329507,-72932.291410
604.057291,-10807.006753,-148.041188,-73545.167808
604.059823,296.082377,-3552.988522,-74311.263306
604.062356,1332.370696,-15692.365970,-79520.712692
604.064888,9178.553681,-3849.070898,-79061.055394
604.067420,8142.265362,-4737.318029,-77528.864398
604.069953,9918.759623,444.123565,-72012.976812
604.072485,15840.407159,148.041188,-69255.033019
604.075017,1776.494261,3701.029710,-74158.044206
604.077549,-3404.947333,-19837.519246,-79827.150892
604.080082,22502.260637,5181.441594,-74924.139704
604.082614,-12139.377449,4145.153275,-79367.493593
604.085146,-21614.013506,16136.489536,-75077.358804
604.087679,-4589.276840,4737.318029,-71859.757712
604.090211,-8586.388927,24426.796086,-72166.195912
604.092750,6957.935855,5625.565159,-76149.892501
604.095290,-4885.359217,4441.235652,-79367.493593
604.097829,3997.112087,1924.535449,-75690.235202
604.100369,-6365.771101,19393.395680,-72472.634111
604.102908,10362.883188,12879.583391,-71859.757712
604.105448,-9030.512492,1924.535449,-75230.577904
604.107987,-8290.306550,-2220.617826,-78907.836294
604.110527,-7698.141797,5773.606348,-79520.712692
604.113066,-5921.647536,7698.141797,-74770.920605
604.115605,17320.819043,10214.842000,-70327.566716
604.118145,2960.823768,6661.853478,-70940.443115
604.120684,-11695.253884,-4885.359217,-74617.701505
604.123224,-6069.688724,9030.512492,-75843.454302
604.125763,9030.512492,11991.336260,-75690.235202
604.128303,-12731.542202,12287.418637,-77222.426198
604.130842,8290.306550,8882.471304,-72319.415011
604.133382,4885.359217,-1628.453072,-72625.853210
604.135921,15248.242405,-5921.647536,-73238.729609
604.138460,21762.054695,-13471.748144,-77222.426198
604.141000,2220.617826,-2516.700203,-77988.521696
604.143539,3552.988522,-296.082377,-75230.577904
604.146079,12139.377449,13767.830521,-71246.881314
604.148618,-7105.977043,2960.823768,-75537.016103
604.151158,-1184.329507,888.247130,-74924.139704
604.153697,9030.512492,-10066.800811,-76609.549800
604.156237,12583.501014,-148.041188,-76609.549800
604.158776,4441.235652,2664.741391,-73238.729609
604.161316,7698.141797,-444.123565,-72012.976812
604.163855,10807.006753,-2516.700203,-74770.920605
604.166394,-8882.471304,-7698.141797,-78754.617194
604.168934,7846.182985,1924.535449,-77375.645298
604.171473,9770.718434,4293.194464,-77069.207099
604.174013,14508.036463,-2664.741391,-74158.044206
604.176552,10066.800811,1184.329507,-70174.347617
604.179092,11843.295072,-592.164754,-72166.195912
604.181631,-9178.553681,-14359.995275,-78754.617194
604.184171,19689.478057,3108.864956,-75230.577904
604.186710,2812.782580,5181.441594,-75230.577904
604.189250,-8438.347739,9178.553681,-74158.044206
604.191789,-2516.700203,8142.265362,-72472.634111
604.194334,-6069.688724,12287.418637,-73085.510509
604.196879,-7402.059420,2812.782580,-77069.207099
604.199424,1036.288319,4589.276840,-77375.645298
604.201969,3701.029710,3701.029710,-75843.454302
604.204514,-888.247130,15100.201217,-73391.948708
604.207059,-6365.771101,0.000000,-74924.139704
604.209603,-7550.100608,-7254.018232,-74311.263306
604.212148,-1480.411884,-6809.894666,-75996.673402
604.214693,20429.683999,10214.842000,-74617.701505
604.217238,23686.590144,13323.706956,-73391.948708
604.219783,148.041188,6661.853478,-73085.510509
604.222328,-4589.276840,-592.164754,-73238.729609
604.224873,-13915.871710,11547.212695,-74924.139704
604.227418,-12435.459826,11547.212695,-77222.426198
604.229963,-2368.659014,15396.283594,-76762.768900
604.232508,296.082377,5625.565159,-76762.768900
604.235053,3256.906145,4589.276840,-74464.482406
604.237598,17616.901420,-2368.659014,-72472.634111
604.240143,-4145.153275,-10066.800811,-75996.673402
604.242687,32421.020260,-6957.935855,-73851.606007
604.245232,4441.235652,4589.276840,-76762.768900
604.247777,2220.617826,-1776.494261,-77528.864398
604.250322,-17468.860231,-6069.688724,-77528.864398
604.252867,14804.118840,-5033.400406,-72932.291410
604.255412,-7846.182985,-7254.018232,-76456.330700
604.257957,5625.565159,-5329.482782,-76915.987999
604.260502,-1036.288319,-7698.141797,-74311.263306
604.263047,33605.349767,14211.954086,-68948.594820
604.265592,22798.343014,-3108.864956,-74311.263306
604.268137,-31384.731941,-15692.365970,-80286.808190
604.270682,-296.082377,-8438.347739,-77682.083497
604.273227,1924.535449,8734.430116,-75843.454302
604.275771,29608.237680,8438.347739,-73238.729609
604.278316,-6069.688724,7402.059420,-73391.948708
604.280861,-2960.823768,296.082377,-74464.482406
604.283406,2664.741391,-15248.242405,-75383.797003
604.285951,23686.590144,4737.318029,-73545.167808
604.288496,-33901.432144,-148.041188,-82431.875585
604.291041,-10362.883188,17320.819043,-75843.454302
604.293586,1332.370696,11695.253884,-74004.825107
604.296136,-2072.576638,23242.466579,-71400.100414
604.298686,-7698.141797,740.205942,-76149.892501
604.301235,-296.082377,1036.288319,-74924.139704
604.303785,8734.430116,-3701.029710,-75843.454302
604.306335,1924.535449,10362.883188,-74464.482406
604.308885,-4589.276840,11547.212695,-75537.016103
604.311434,-2516.700203,5477.523971,-74617.701505
604.313984,-148.041188,3404.947333,-76303.111601
604.316534,-2220.617826,12435.459826,-76149.892501
604.319084,3701.029710,15988.448347,-75383.797003
604.321633,-2664.741391,10807.006753,-74770.920605
604.324183,-6809.894666,4293.194464,-73391.948708
604.326733,-3552.988522,6365.771101,-74464.482406
604.329283,-13915.871710,4441.235652,-75843.454302
604.331833,0.000000,9474.636058,-75996.673402
604.334382,-16432.571912,2664.741391,-77375.645298
604.336932,27387.619854,7698.141797,-71706.538613
604.339482,-3997.112087,-9030.512492,-76303.111601
604.342032,5033.400406,-7254.018232,-75077.358804
604.344581,25167.002028,-13027.624579,-73851.606007
604.347131,12287.418637,5773.606348,-74617.701505
604.349681,-7105.977043,-8438.347739,-78141.740796
604.352231,4145.153275,6957.935855,-73085.510509
604.354781,5477.523971,4145.153275,-76149.892501
604.357330,-6809.894666,740.205942,-77222.426198
604.359880,9030.512492,2220.617826,-74004.825107
604.362430,13471.748144,4145.153275,-74464.482406
604.364980,2072.576638,-10807.006753,-75690.235202
604.367529,-3404.947333,0.000000,-72779.072310
604.370079,23094.425390,-4441.235652,-73851.606007
604.372629,5773.606348,-6217.729913,-75996.673402
604.375179,-740.205942,-12139.377449,-77375.645298
604.377729,21169.889941,-4145.153275,-73391.948708
604.380278,11695.253884,4145.153275,-72779.072310
604.382828,6513.812290,1480.411884,-74311.263306
604.385378,-3108.864956,1480.411884,-74311.263306
604.387928,26795.455100,3108.864956,-75230.577904
604.390477,-37158.338288,5329.482782,-80286.808190
604.393027,14359.995275,14508.036463,-72166.195912
604.395577,-6513.812290,14656.077652,-73391.948708
604.398131,-4885.359217,8142.265362,-73391.948708
604.400685,-8734.430116,5625.565159,-75996.673402
604.403239,7698.141797,7105.977043,-75230.577904
604.405793,0.000000,1628.453072,-76762.768900
604.408347,1776.494261,11547.212695,-74004.825107
604.410901,-1184.329507,9770.718434,-74770.920605
604.413455,-592.164754,2960.823768,-74158.044206
604.416009,592.164754,-3256.906145,-76762.768900
604.418563,-3256.906145,10510.924376,-76609.549800
604.421117,148.041188,10807.006753,-75230.577904
604.423671,4293.194464,12287.418637,-73238.729609
604.426225,-2812.782580,7402.059420,-72932.291410
604.428779,-7698.141797,4885.359217,-75077.358804
604.431333,-10214.842000,10658.965565,-75230.577904
604.433887,740.205942,14656.077652,-75537.016103
604.436441,-5921.647536,6957.935855,-78141.740796
604.438995,-6957.935855,5921.647536,-75537.016103
604.441549,16580.613101,444.123565,-72472.634111
604.444103,9178.553681,-6809.894666,-74924.139704
604.446657,22206.178260,-5625.565159,-74770.920605
604.449211,13471.748144,2960.823768,-74004.825107
604.451765,444.123565,-4737.318029,-77528.864398
604.454319,-3997.112087,1924.535449,-74464.482406
604.456873,6513.812290,148.041188,-75230.577904
604.459427,-9474.636058,-1924.535449,-76915.987999
604.461981,1480.411884,-6069.688724,-75537.016103
604.464535,14656.077652,4441.235652,-72625.853210
604.467089,12435.459826,296.082377,-72932.291410
604.469643,1480.411884,-740.205942,-74004.825107
604.472197,13471.748144,-11991.336260,-75383.797003
604.474751,2960.823768,-1332.370696,-77375.645298
604.477305,12583.501014,-4885.359217,-77835.302597
604.479859,-740.205942,3256.906145,-75383.797003
604.482413,22354.219448,4589.276840,-71093.662214
604.484967,3701.029710,8882.471304,-73698.386908
604.487521,-2664.741391,-21465.972318,-77682.083497
604.490075,19837.519246,3997.112087,-72625.853210
604.492629,-1628.453072,6069.688724,-77528.864398
604.495183,-27387.619854,11103.089130,-78294.959896
604.497737,-4737.318029,5921.647536,-74158.044206
604.500294,-12583.501014,11251.130318,-74311.263306
604.502851,8882.471304,11843.295072,-74464.482406
604.505408,-4885.359217,8290.306550,-76609.549800
604.507964,3849.070898,3552.988522,-75230.577904
604.510521,-148.041188,15248.242405,-73698.386908
604.513078,5477.523971,8438.347739,-73391.948708
604.515635,-4737.318029,1924.535449,-75383.797003
604.518192,-10066.800811,5181.441594,-77069.207099
604.520749,-3997.112087,8734.430116,-77835.302597
604.523306,5329.482782,13619.789333,-74158.044206
604.525863,-740.205942,7698.141797,-73085.510509
604.528420,-4589.276840,5181.441594,-74004.825107
604.530976,-12287.418637,4293.194464,-75230.577904
604.533533,0.000000,11547.212695,-75537.016103
604.536090,-18209.066173,4885.359217,-78294.959896
604.538647,20873.807564,4885.359217,-73545.167808
604.541204,-2516.700203,-9918.759623,-76456.330700
604.543761,14656.077652,-4293.194464,-72012.976812
604.546318,17320.819043,-12879.583391,-74770.920605
604.548875,8586.388927,888.247130,-76149.892501
604.551432,-8586.388927,-5329.482782,-77069.207099
604.553988,17172.777854,14952.160028,-73545.167808
604.556545,-9622.677246,-888.247130,-78141.740796
604.559102,5625.565159,-1332.370696,-74004.825107
604.561659,9326.594869,7402.059420,-73391.948708
604.564216,11695.253884,8734.430116,-74464.482406
604.566773,7254.018232,-3404.947333,-75843.454302
604.569330,-5625.565159,-7846.182985,-74770.920605
604.571887,12731.542202,-5329.482782,-73545.167808
604.574444,20281.642811,-1332.370696,-75537.016103
604.577000,1332.370696,-11251.130318,-77988.521696
604.579557,8438.347739,-3404.947333,-75077.358804
604.582114,18357.107362,3256.906145,-71859.757712
604.584671,10362.883188,5921.647536,-74311.263306
604.587228,-2516.700203,-2072.576638,-75077.358804
604.589785,26351.331535,7402.059420,-72625.853210
604.592342,-10214.842000,6957.935855,-77835.302597
604.594899,-6217.729913,10214.842000,-74924.139704
604.597456,-5625.565159,6217.729913,-74004.825107
604.600012,-7105.977043,18653.189738,-73851.606007
604.602572,-12731.542202,1628.453072,-77528.864398
604.605132,2664.741391,2960.823768,-74924.139704
604.607691,2516.700203,2220.617826,-75843.454302
604.610251,444.123565,9474.636058,-73851.606007
604.612810,-4589.276840,-592.164754,-74311.263306
604.615370,6513.812290,17172.777854,-72166.195912
604.617929,9918.759623,10658.965565,-76149.892501
604.620489,-5329.482782,4737.318029,-78448.178995
604.623049,-15100.201217,6957.935855,-77222.426198
604.625608,-11695.253884,12139.377449,-74004.825107
604.628168,-6217.729913,17764.942608,-73085.510509
604.630727,-4737.318029,15396.283594,-74464.482406
604.633287,-15988.448347,4145.153275,-77528.864398
604.635846,-8882.471304,740.205942,-76609.549800
604.638406,25759.166782,3997.112087,-72472.634111
604.640966,296.082377,-9770.718434,-76609.549800
604.643525,888.247130,-1332.370696,-74464.482406
604.646085,21169.889941,-4441.235652,-74617.701505
604.648644,5329.482782,6661.853478,-75996.673402
604.651204,1332.370696,-1036.288319,-75690.235202
604.653764,592.164754,11103.089130,-74004.825107
604.656323,3404.947333,3552.988522,-76456.330700
604.658883,-2812.782580,1184.329507,-75690.235202
604.661442,4441.235652,-7698.141797,-74617.701505
604.664002,15396.283594,9030.512492,-72319.415011
604.666561,7402.059420,-6365.771101,-75843.454302
604.669121,-3256.906145,-3108.864956,-74770.920605
604.671681,5921.647536,-8586.388927,-75690.235202
604.674240,5033.400406,8882.471304,-76609.549800
604.676800,9178.553681,-5773.606348,-78141.740796
604.679359,-2072.576638,2072.576638,-74617.701505
604.681919,19985.560434,-1628.453072,-72625.853210
604.684478,6661.853478,11843.295072,-72166.195912
604.687038,2516.700203,-16432.571912,-78141.740796
604.689598,5921.647536,4145.153275,-74464.482406
604.692157,7698.141797,2960.823768,-75537.016103
604.694717,-14211.954086,8586.388927,-76149.892501
604.697276,-4441.235652,6513.812290,-73545.167808
604.699836,-10362.883188,17320.819043,-74158.044206
604.702395,-6661.853478,592.164754,-77528.864398
604.704957,-1036.288319,5181.441594,-76609.549800
604.707518,3997.112087,2368.659014,-75383.797003
604.710080,1332.370696,12731.542202,-72779.072310
604.712641,5181.441594,9178.553681,-72472.634111
604.715202,-2664.741391,9030.512492,-75230.577904
604.717763,2812.782580,2220.617826,-77375.645298
604.720325,-8290.306550,4885.359217,-77835.302597
604.722886,-12287.418637,10658.965565,-75690.235202
604.725447,1332.370696,15840.407159,-72779.072310
604.728009,-3404.947333,11251.130318,-73085.510509
604.730570,-16580.613101,148.041188,-76149.892501
604.733131,4885.359217,14952.160028,-72625.853210
604.735692,-6957.935855,1480.411884,-77988.521696
604.738254,-888.247130,6661.853478,-76915.987999
604.740815,10955.047942,-4293.194464,-74770.920605
604.743376,4737.318029,-1036.288319,-72625.853210
604.745937,31532.773129,-12435.459826,-72319.415011
604.748499,7994.224174,7550.100608,-73851.606007
604.751060,8290.306550,-6809.894666,-76609.549800
604.753621,-10807.006753,-5773.606348,-75996.673402
604.756182,10362.883188,-6513.812290,-76303.111601
604.758744,-7698.141797,-5477.523971,-76609.549800
604.761305,-1480.411884,-1776.494261,-75077.358804
604.763866,10214.842000,3997.112087,-74004.825107
604.766427,9918.759623,1776.494261,-74464.482406
604.768989,888.247130,-6513.812290,-75843.454302
604.771550,-5329.482782,-11399.171507,-77375.645298
604.774111,4589.276840,-10066.800811,-78448.178995
604.776673,12731.542202,-444.123565,-74770.920605
604.779234,17616.901420,4885.359217,-73238.729609
604.781795,7994.224174,4145.153275,-74464.482406
604.784356,5033.400406,-740.205942,-73545.167808
604.786918,23094.425390,4737.318029,-74464.482406
604.789479,-33901.432144,6513.812290,-80899.684589
604.792040,9770.718434,15692.365970,-73851.606007
604.794601,-5329.482782,15248.242405,-74770.920605
604.797163,-12435.459826,12287.418637,-74770.920605
604.799724,-14211.954086,2960.823768,-75996.673402
604.802285,9918.759623,3997.112087,-75077.358804
604.804846,148.041188,1036.288319,-76609.549800
604.807409,3552.988522,7402.059420,-72779.072310
604.809972,-4293.194464,-3701.029710,-75230.577904
604.812535,2368.659014,8734.430116,-72166.195912
604.815098,20281.642811,5033.400406,-74158.044206
604.817661,11547.212695,12435.459826,-75843.454302
604.820224,-20873.807564,3108.864956,-78907.836294
604.822787,-16136.489536,19837.519246,-74770.920605
604.825350,-2812.782580,19097.313304,-73085.510509
604.827913,-6365.771101,14508.036463,-73698.386908
604.830476,-12435.459826,4737.318029,-77375.645298
604.833039,-8142.265362,1628.453072,-76303.111601
604.835602,22354.219448,5921.647536,-72779.072310
604.838164,-592.164754,-9770.718434,-77835.302597
604.840727,740.205942,-2812.782580,-74158.044206
604.843290,25463.084405,-14211.954086,-72932.291410
604.845853,14656.077652,5181.441594,-73085.510509
604.848416,5329.482782,-444.123565,-76762.768900
604.850979,-2960.823768,1924.535449,-76303.111601
604.853542,1924.535449,-3997.112087,-76915.987999
604.856105,-3552.988522,-1332.370696,-76609.549800
604.858668,3849.070898,-4293.194464,-75230.577904
604.861231,7994.224174,7254.018232,-72932.291410
604.863794,16728.654289,-5625.565159,-74004.825107
604.866357,-740.205942,-7402.059420,-75537.016103
604.868920,9178.553681,-14656.077652,-75690.235202
604.871483,4441.235652,-10066.800811,-77682.083497
604.874045,13175.665768,-1628.453072,-74770.920605
604.876608,11251.130318,1776.494261,-73851.606007
604.879171,14063.912898,3997.112087,-72625.853210
604.881734,3256.906145,592.164754,-74158.044206
604.884297,19097.313304,4293.194464,-75690.235202
604.886860,-38490.708984,4737.318029,-81206.122788
604.889423,19837.519246,23094.425390,-71553.319513
604.891986,-5625.565159,14211.954086,-75537.016103
604.894549,-6809.894666,10362.883188,-73851.606007
604.897112,-13915.871710,-3256.906145,-75537.016103
604.899675,13175.665768,7254.018232,-73545.167808
604.902238,3997.112087,2960.823768,-77222.426198
604.904801,-888.247130,17616.901420,-72779.072310
604.907364,6217.729913,10066.800811,-73391.948708
604.909927,-4293.194464,9178.553681,-74158.044206
604.912491,-13767.830521,5181.441594,-77069.207099
604.915055,-4885.359217,9326.594869,-76456.330700
604.917619,15396.283594,15544.324782,-74311.263306
604.920183,-2960.823768,9474.636058,-74004.825107
604.922746,-5477.523971,-888.247130,-73085.510509
604.925310,-6513.812290,9326.594869,-73238.729609
604.927874,1332.370696,16728.654289,-73851.606007
604.930438,-29164.114115,5477.523971,-80899.684589
604.933002,10214.842000,6217.729913,-75230.577904
604.935565,14508.036463,-2812.782580,-74464.482406
604.938129,3997.112087,-888.247130,-72625.853210
604.940693,26943.496289,-7105.977043,-72779.072310
604.943257,11843.295072,3849.070898,-73545.167808
604.945821,5773.606348,-7402.059420,-76609.549800
604.948384,1776.494261,4885.359217,-74617.701505
604.950948,1332.370696,5773.606348,-77222.426198
604.953512,-7698.141797,-2664.741391,-76762.768900
604.956076,296.082377,-1036.288319,-73085.510509
604.958640,16728.654289,3849.070898,-72472.634111
604.961203,13175.665768,-3849.070898,-74464.482406
604.963767,0.000000,-12139.377449,-76762.768900
604.966331,-14508.036463,-8586.388927,-79214.274493
604.968895,12287.418637,-10066.800811,-78141.740796
604.971458,-4293.194464,5329.482782,-76456.330700
604.974022,10807.006753,14211.954086,-72932.291410
604.976586,12139.377449,7105.977043,-73851.606007
604.979150,2812.782580,-9770.718434,-75537.016103
604.981714,25611.125593,-148.041188,-72932.291410
604.984277,-19837.519246,3404.947333,-79214.274493
604.986841,-5329.482782,10066.800811,-76915.987999
604.989405,-9030.512492,13027.624579,-74617.701505
604.991969,-13323.706956,23390.507767,-73238.729609
604.994533,-14063.912898,7994.224174,-76303.111601
604.997096,2812.782580,2664.741391,-76149.892501
604.999660,-592.164754,1036.288319,-76456.330700
605.002224,3701.029710,18653.189738,-72932.291410
605.004788,14804.118840,9622.677246,-73085.510509
605.007352,-18653.189738,-1480.411884,-75996.673402
605.009915,-8882.471304,9030.512492,-74924.139704
605.012480,11843.295072,20873.807564,-75690.235202
605.015045,7994.224174,10807.006753,-74617.701505
605.017610,-13175.665768,1776.494261,-74311.263306
605.020175,-4441.235652,5625.565159,-73085.510509
605.022740,-3849.070898,6513.812290,-72779.072310
605.025305,-8290.306550,8586.388927,-75077.358804
605.027870,296.082377,1776.494261,-77988.521696
605.030435,-6661.853478,-4589.276840,-77375.645298
605.033000,20133.601622,-1332.370696,-72319.415011
605.035565,13323.706956,-5181.441594,-73545.167808
605.038130,4145.153275,1924.535449,-75383.797003
605.040695,7105.977043,-1480.411884,-74464.482406
605.043260,11399.171507,4737.318029,-74311.263306
605.045825,-9770.718434,-1036.288319,-77528.864398
605.048390,5773.606348,-6661.853478,-76149.892501
605.050955,-6069.688724,-13175.665768,-77375.645298
605.053520,10066.800811,4145.153275,-72779.072310
605.056084,1184.329507,-3404.947333,-75077.358804
605.058649,2368.659014,-592.164754,-74770.920605
605.061214,4145.153275,-5477.523971,-76149.892501
605.063779,6809.894666,-11547.212695,-77988.521696
605.066344,10658.965565,-7698.141797,-76915.987999
605.068909,13471.748144,3552.988522,-73238.729609
605.071474,10362.883188,1628.453072,-73085.510509
605.074039,6217.729913,3108.864956,-73085.510509
605.076604,18949.272115,-3849.070898,-75537.016103
605.079169,-26795.455100,8734.430116,-78601.398095
605.081734,14804.118840,15396.283594,-74158.044206
605.084299,-12879.583391,15396.283594,-76149.892501
605.086864,-8882.471304,6069.688724,-73851.606007
605.089429,-6661.853478,9770.718434,-72625.853210
605.091994,15840.407159,9030.512492,-75077.358804
605.094559,6217.729913,2516.700203,-76456.330700
605.097124,3997.112087,4589.276840,-73085.510509
605.099688,-1628.453072,15248.242405,-72166.195912
605.102253,4737.318029,9622.677246,-73698.386908
605.104818,-11547.212695,9622.677246,-75843.454302
605.107383,-11251.130318,3108.864956,-77988.521696
605.109948,4441.235652,12139.377449,-76303.111601
605.112513,1924.535449,10955.047942,-73851.606007
605.115078,-12435.459826,296.082377,-73851.606007
605.117644,-4589.276840,2960.823768,-72625.853210
605.120209,-2960.823768,14804.118840,-73238.729609
605.122774,-5181.441594,4441.235652,-78141.740796
605.125339,-18061.024985,-7698.141797,-80593.246390
605.127904,21762.054695,1332.370696,-74158.044206
605.130469,3256.906145,-2072.576638,-74924.139704
605.133035,19689.478057,5477.523971,-72779.072310
605.135600,2960.823768,2516.700203,-73698.386908
605.138165,15248.242405,1480.411884,-74770.920605
605.140730,-5033.400406,-1036.288319,-77528.864398
605.143295,5921.647536,0.000000,-76762.768900
605.145860,-9326.594869,4737.318029,-77222.426198
605.148426,5773.606348,2812.782580,-74770.920605
605.150991,-3849.070898,444.123565,-74924.139704
605.153556,13175.665768,1480.411884,-72472.634111
605.156121,-1628.453072,1184.329507,-75383.797003
605.158686,18801.230927,-6957.935855,-76915.987999
605.161251,11991.336260,-10214.842000,-76456.330700
605.163817,15100.201217,-5625.565159,-74311.263306
605.166382,3997.112087,-1184.329507,-74464.482406
605.168947,12287.418637,0.000000,-72779.072310
605.171512,7254.018232,888.247130,-76915.987999
605.174077,-23094.425390,10955.047942,-78907.836294
605.176642,7254.018232,15100.201217,-74770.920605
605.179208,2368.659014,13471.748144,-73698.386908
605.181773,-6365.771101,9474.636058,-72472.634111
605.184338,-7402.059420,5921.647536,-73698.386908
605.186903,-1184.329507,3997.112087,-76609.549800
605.189468,4145.153275,-1332.370696,-76762.768900
605.192033,-740.205942,9918.759623,-74617.701505
605.194599,9326.594869,17468.860231,-74158.044206
605.197164,-1924.535449,14656.077652,-71553.319513
605.199729,2664.741391,3997.112087,-74004.825107
605.202294,2220.617826,15840.407159,-76303.111601
605.204859,-888.247130,14359.995275,-76762.768900
605.207424,-3701.029710,9622.677246,-75077.358804
605.209990,-8586.388927,13027.624579,-72625.853210
605.212555,-7846.182985,7994.224174,-73085.510509
605.215120,-14508.036463,11547.212695,-73238.729609
605.217686,8586.388927,5033.400406,-76915.987999
605.220251,-11251.130318,-8142.265362,-79980.369991
605.222817,23538.548956,444.123565,-73851.606007
605.225383,3849.070898,-4737.318029,-75690.235202
605.227949,13915.871710,5477.523971,-73238.729609
605.230514,444.123565,296.082377,-73545.167808
605.233080,15248.242405,5921.647536,-74617.701505
605.235646,-4441.235652,-740.205942,-77375.645298
605.238212,6661.853478,-4737.318029,-77528.864398
605.240777,-12287.418637,-9178.553681,-78448.178995
605.243343,-6957.935855,-12583.501014,-75077.358804
605.245909,20873.807564,-4145.153275,-68335.718422
605.248475,30792.567187,7994.224174,-70174.347617
605.251040,5181.441594,-13027.624579,-79367.493593
605.253606,11991.336260,-17320.819043,-79980.369991
605.256172,-9918.759623,-13027.624579,-79980.369991
605.258738,2368.659014,9622.677246,-73238.729609
605.261303,18801.230927,19985.560434,-71400.100414
605.263869,-7550.100608,2812.782580,-76609.549800
605.266435,30348.443622,-2812.782580,-73238.729609
605.269001,-15988.448347,7550.100608,-77988.521696
605.271566,8882.471304,9326.594869,-74617.701505
605.274132,-20725.766376,5921.647536,-77069.207099
605.276698,-18061.024985,13767.830521,-74311.263306
605.279264,-8438.347739,13619.789333,-74311.263306
605.281829,12731.542202,12435.459826,-76303.111601
605.284395,5033.400406,5625.565159,-76762.768900
605.286961,1184.329507,14508.036463,-73391.948708
605.289527,-6069.688724,-592.164754,-74770.920605
605.292092,3997.112087,4589.276840,-71859.757712
605.294658,3552.988522,1776.494261,-75843.454302
605.297224,888.247130,7698.141797,-76609.549800
605.299790,-6513.812290,8586.388927,-77069.207099
605.302355,-3552.988522,17024.736666,-73238.729609
605.304921,-13619.789333,13471.748144,-72932.291410
605.307487,-8734.430116,13323.706956,-73851.606007
605.310053,-18357.107362,5181.441594,-76915.987999
605.312619,17912.983796,8290.306550,-73851.606007
605.315184,5773.606348,-4293.194464,-76915.987999
605.317750,-1184.329507,-3701.029710,-75537.016103
605.320316,35529.885216,-16580.613101,-71400.100414
605.322882,8734.430116,2812.782580,-71706.538613
605.325448,8882.471304,-5625.565159,-75843.454302
605.328013,-3552.988522,2664.741391,-76915.987999
605.330579,-2072.576638,-6217.729913,-79214.274493
605.333145,3552.988522,3552.988522,-75537.016103
605.335711,5773.606348,-5773.606348,-76149.892501
605.338276,2960.823768,-2220.617826,-72012.976812
605.340842,23390.507767,-4885.359217,-70787.224015
605.343408,10658.965565,6217.729913,-74004.825107
605.345974,19541.436869,-10807.006753,-76915.987999
605.348540,7402.059420,-11399.171507,-78448.178995
605.351105,10955.047942,-5033.400406,-75230.577904
605.353671,6365.771101,6365.771101,-73238.729609
605.356237,11399.171507,7698.141797,-71859.757712
605.358803,9770.718434,1628.453072,-76149.892501
605.361369,-17616.901420,7994.224174,-78448.178995
605.363934,12583.501014,16876.695478,-74464.482406
605.366500,-4885.359217,11103.089130,-75537.016103
605.369066,-9030.512492,5181.441594,-73698.386908
605.371632,-10362.883188,5921.647536,-73545.167808
605.374197,5921.647536,6661.853478,-74770.920605
605.376763,2072.576638,3108.864956,-76915.987999
605.379329,3108.864956,9178.553681,-74311.263306
605.381895,6809.894666,18209.066173,-72779.072310
605.384461,6957.935855,24722.878463,-70940.443115
605.387026,-2960.823768,8586.388927,-75690.235202
605.389592,-13471.748144,13619.789333,-76915.987999
605.392158,-5181.441594,20873.807564,-76456.330700
605.394724,3701.029710,16728.654289,-75383.797003
605.397290,-12435.459826,7254.018232,-72625.853210
605.399855,-2960.823768,3701.029710,-72932.291410
605.402421,-22058.137072,6661.853478,-74004.825107
605.404987,22650.301825,3701.029710,-73698.386908
605.407553,-14656.077652,-7254.018232,-79673.931792
605.410119,13915.871710,-5477.523971,-75230.577904
605.412685,19689.478057,-11991.336260,-73085.510509
605.415251,13619.789333,4293.194464,-71553.319513
605.417816,-7698.141797,-6809.894666,-74924.139704
605.420382,5181.441594,592.164754,-75230.577904
605.422948,-2516.700203,-3552.988522,-77682.083497
605.425514,17468.860231,-2664.741391,-75690.235202
605.428080,-3997.112087,-10362.883188,-75996.673402
605.430646,7846.182985,-2664.741391,-74617.701505
605.433212,-12879.583391,148.041188,-75690.235202
605.435778,1628.453072,-2220.617826,-73545.167808
605.438344,10955.047942,-10066.800811,-76915.987999
605.440909,25018.960840,-6217.729913,-76762.768900
605.443475,22206.178260,-2812.782580,-74464.482406
605.446041,3997.112087,740.205942,-74158.044206
605.448607,11843.295072,296.082377,-70327.566716
605.451173,7994.224174,-4885.359217,-76149.892501
605.453739,-15840.407159,9622.677246,-77835.302597
605.456305,6809.894666,11399.171507,-76915.987999
605.458871,-5921.647536,12731.542202,-76609.549800
605.461437,-3701.029710,8882.471304,-73085.510509
605.464002,-9622.677246,11103.089130,-71706.538613
605.466568,-4589.276840,-1184.329507,-75843.454302
605.469134,-2220.617826,-3701.029710,-77222.426198
605.471700,1776.494261,0.000000,-76915.987999
605.474266,-6661.853478,-2664.741391,-77682.083497
605.476832,-14508.036463,-10214.842000,-75077.358804
605.479398,-1776.494261,-3701.029710,-71859.757712
605.481964,26647.413912,4293.194464,-71859.757712
605.484529,17172.777854,-5477.523971,-77375.645298
605.487095,-21169.889941,-7105.977043,-77528.864398
605.489661,-6365.771101,15988.448347,-74770.920605
605.492227,-14952.160028,27387.619854,-73545.167808
605.494793,-21021.848753,7994.224174,-75383.797003
605.497359,14656.077652,5477.523971,-72319.415011
605.499925,14211.954086,-14359.995275,-77069.207099
605.502491,15544.324782,-6809.894666,-76456.330700
605.505056,36418.132346,-17320.819043,-73545.167808
605.507622,296.082377,-1628.453072,-73085.510509
605.510187,11399.171507,-8586.388927,-73085.510509
605.512752,-4737.318029,2368.659014,-74770.920605
605.515318,-3108.864956,-1776.494261,-77835.302597
605.517883,11695.253884,2368.659014,-75690.235202
605.520449,6217.729913,-8290.306550,-77375.645298
605.523014,-5625.565159,-296.082377,-73698.386908
605.525580,14063.912898,-1332.370696,-71706.538613
605.528145,4441.235652,12435.459826,-72625.853210
605.530710,5181.441594,-7402.059420,-79061.055394
605.533276,1332.370696,-14359.995275,-79980.369991
605.535841,25315.043216,17024.736666,-74617.701505
605.538407,16728.654289,3849.070898,-71706.538613
605.540972,4589.276840,1184.329507,-72012.976812
605.543538,14656.077652,-6069.688724,-75077.358804
605.546103,-25611.125593,10362.883188,-79367.493593
605.548668,14656.077652,15692.365970,-76456.330700
605.551234,-11547.212695,16580.613101,-77528.864398
605.553799,-16432.571912,3849.070898,-75383.797003
605.556365,-10214.842000,8734.430116,-71553.319513
605.558930,19097.313304,10066.800811,-72625.853210
605.561496,6069.688724,4885.359217,-75843.454302
605.564061,-8290.306550,-8586.388927,-77988.521696
605.566626,-6069.688724,-3701.029710,-76609.549800
605.569192,-1184.329507,-296.082377,-72625.853210
605.571757,9770.718434,14359.995275,-70634.004916
605.574323,9474.636058,6513.812290,-76609.549800
605.576888,-22650.301825,1776.494261,-78448.178995
605.579454,-3108.864956,11695.253884,-75537.016103
605.582019,-11399.171507,17320.819043,-73851.606007
605.584585,-6217.729913,11991.336260,-72625.853210
605.587150,-24130.713709,-1036.288319,-77222.426198
605.589715,9326.594869,5921.647536,-73851.606007
605.592281,12583.501014,-5477.523971,-77682.083497
605.594846,3404.947333,-7254.018232,-76915.987999
605.597412,31384.731941,-12879.583391,-72932.291410
605.599977,15248.242405,5773.606348,-69867.909418
605.602543,10214.842000,6661.853478,-72779.072310
