#time,accel_x,accel_y,accel_z
1010.145718,1776.494261,-148.041188,-76149.892501
1010.148238,2072.576638,-148.041188,-77222.426198
1010.150758,2072.576638,-1332.370696,-77069.207099
1010.153278,2072.576638,-1036.288319,-77528.864398
1010.155798,3108.864956,-3849.070898,-77069.207099
1010.158317,2220.617826,2812.782580,-76915.987999
1010.160837,-1332.370696,3997.112087,-78141.740796
1010.163357,-2072.576638,-8734.430116,-77988.521696
1010.165877,-1776.494261,-13915.871710,-77835.302597
1010.168397,1036.288319,-2220.617826,-76609.549800
1010.170917,3552.988522,-1332.370696,-77222.426198
1010.173437,4885.359217,-6661.853478,-76456.330700
1010.175957,3552.988522,-3108.864956,-74770.920605
1010.178476,7994.224174,5625.565159,-74924.139704
1010.180996,2220.617826,-888.247130,-75383.797003
1010.183516,19097.313304,-8734.430116,-75077.358804
1010.186036,592.164754,-9622.677246,-74617.701505
1010.188556,39823.079680,0.000000,-71859.757712
1010.191076,-296.082377,12139.377449,-74924.139704
1010.193596,-35825.967593,6217.729913,-77069.207099
1010.196116,-31976.896694,1776.494261,-76149.892501
1010.198635,11103.089130,9918.759623,-72166.195912
1010.201155,-3701.029710,11695.253884,-74924.139704
1010.203675,3997.112087,-2664.741391,-78601.398095
1010.206195,-3256.906145,-9474.636058,-76456.330700
1010.208715,5477.523971,6069.688724,-72012.976812
1010.211235,17024.736666,15692.365970,-71093.662214
1010.213755,-10214.842000,1776.494261,-76762.768900
1010.216274,-10362.883188,3997.112087,-78448.178995
1010.218794,-5181.441594,-1036.288319,-77375.645298
1010.221314,11991.336260,20429.683999,-73545.167808
1010.223834,2516.700203,13027.624579,-73085.510509
1010.226354,-7254.018232,-1480.411884,-73391.948708
1010.228874,888.247130,592.164754,-75383.797003
1010.231394,3108.864956,-3404.947333,-76762.768900
1010.233914,3108.864956,8586.388927,-76609.549800
1010.236433,1184.329507,9326.594869,-77222.426198
1010.238953,-4441.235652,2812.782580,-75077.358804
1010.241483,-5329.482782,3256.906145,-73238.729609
1010.244013,-444.123565,1924.535449,-74770.920605
1010.246543,3108.864956,8290.306550,-74924.139704
1010.249073,-296.082377,3701.029710,-78294.959896
1010.251603,-12879.583391,-2516.700203,-78141.740796
1010.254133,5921.647536,3552.988522,-73085.510509
1010.256663,740.205942,7994.224174,-71706.538613
1010.259193,3108.864956,6661.853478,-74158.044206
1010.261723,-7994.224174,-6661.853478,-78294.959896
1010.264253,1776.494261,-1332.370696,-77375.645298
1010.266783,1480.411884,-1480.411884,-77528.864398
1010.269313,-1776.494261,8586.388927,-75690.235202
1010.271843,-2516.700203,-8586.388927,-77069.207099
1010.274373,-14359.995275,888.247130,-76149.892501
1010.276903,2812.782580,2072.576638,-75996.673402
1010.279433,25611.125593,-1184.329507,-74617.701505
1010.281963,-740.205942,-3849.070898,-79980.369991
1010.284493,3256.906145,0.000000,-76915.987999
1010.287023,3404.947333,-592.164754,-72779.072310
1010.289553,17912.983796,-296.082377,-72166.195912
1010.292083,-2960.823768,-2516.700203,-76762.768900
1010.294613,148.041188,-8586.388927,-78448.178995
1010.297143,7105.977043,1332.370696,-73851.606007
1010.299673,9030.512492,3849.070898,-74617.701505
1010.302203,-11843.295072,-5921.647536,-76456.330700
1010.304733,5033.400406,-5921.647536,-75230.577904
1010.307263,4737.318029,1480.411884,-72932.291410
1010.309793,6809.894666,7698.141797,-73698.386908
1010.312323,-148.041188,-1332.370696,-74158.044206
1010.314853,-888.247130,-2220.617826,-74617.701505
1010.317383,740.205942,592.164754,-73851.606007
1010.319913,-2812.782580,-7698.141797,-74311.263306
1010.322443,10658.965565,-5033.400406,-72932.291410
1010.324973,10362.883188,3108.864956,-74158.044206
1010.327503,-1776.494261,-5625.565159,-75843.454302
1010.330033,148.041188,-13323.706956,-74464.482406
1010.332563,5329.482782,3108.864956,-73085.510509
1010.335093,4589.276840,296.082377,-76149.892501
1010.337623,5033.400406,-740.205942,-74770.920605
1010.340153,1036.288319,-7846.182985,-76609.549800
1010.342691,2664.741391,-3701.029710,-76303.111601
1010.345230,2368.659014,1332.370696,-76149.892501
1010.347768,-3849.070898,-7105.977043,-77375.645298
1010.350307,6661.853478,0.000000,-76149.892501
1010.352846,4145.153275,5477.523971,-78141.740796
1010.355384,2960.823768,-1480.411884,-77222.426198
1010.357923,10214.842000,-2072.576638,-75690.235202
1010.360462,6365.771101,-10214.842000,-76915.987999
1010.363000,11695.253884,-592.164754,-75843.454302
1010.365539,5181.441594,-1776.494261,-77222.426198
1010.368078,-2072.576638,-8882.471304,-75843.454302
1010.370616,-10955.047942,-888.247130,-76303.111601
1010.373155,-4145.153275,4589.276840,-74158.044206
1010.375693,-10214.842000,-592.164754,-76915.987999
1010.378232,592.164754,4885.359217,-76762.768900
1010.380771,-15692.365970,2812.782580,-78294.959896
1010.383309,9326.594869,4589.276840,-74311.263306
1010.385848,1332.370696,-3552.988522,-73698.386908
1010.388387,10807.006753,5625.565159,-72625.853210
1010.390925,-11399.171507,5477.523971,-75077.358804
1010.393464,-3701.029710,8142.265362,-75996.673402
1010.396003,-4589.276840,-740.205942,-75843.454302
1010.398541,-7550.100608,10955.047942,-73698.386908
1010.401080,17172.777854,9770.718434,-73851.606007
1010.403619,-7550.100608,12287.418637,-75383.797003
1010.406157,592.164754,-2516.700203,-74158.044206
1010.408696,3552.988522,9030.512492,-74311.263306
1010.411235,4441.235652,2072.576638,-75077.358804
1010.413773,-5033.400406,-296.082377,-75537.016103
1010.416312,3404.947333,9918.759623,-75077.358804
1010.418851,-2072.576638,10807.006753,-76456.330700
1010.421389,-1036.288319,4145.153275,-75537.016103
1010.423928,2220.617826,10807.006753,-75230.577904
1010.426467,592.164754,7550.100608,-76303.111601
1010.429005,1036.288319,6069.688724,-75230.577904
1010.431544,-5329.482782,1924.535449,-74770.920605
1010.434083,-3404.947333,3997.112087,-75537.016103
1010.436621,2664.741391,-5181.441594,-76303.111601
1010.439160,-8142.265362,4441.235652,-73698.386908
1010.441699,6069.688724,888.247130,-74617.701505
1010.444244,-8142.265362,-1332.370696,-76149.892501
1010.446789,4885.359217,-2812.782580,-76303.111601
1010.449335,-1480.411884,6957.935855,-74617.701505
1010.451880,12731.542202,9622.677246,-74311.263306
1010.454425,-13915.871710,-4589.276840,-77988.521696
1010.456970,296.082377,-5477.523971,-75996.673402
1010.459516,3997.112087,-3108.864956,-75843.454302
1010.462061,7698.141797,14359.995275,-72625.853210
1010.464606,5033.400406,-3552.988522,-77069.207099
1010.467152,-19985.560434,-5477.523971,-79520.712692
1010.469697,4589.276840,740.205942,-72779.072310
1010.472242,22354.219448,3404.947333,-73238.729609
1010.474787,-8142.265362,-3552.988522,-78754.617194
1010.477333,5181.441594,-3701.029710,-76609.549800
1010.479878,5477.523971,3701.029710,-72932.291410
1010.482423,19837.519246,6365.771101,-74311.263306
1010.484968,-7994.224174,-5625.565159,-77988.521696
1010.487514,-1036.288319,-3997.112087,-76303.111601
1010.490059,4589.276840,0.000000,-74004.825107
1010.492604,10214.842000,3849.070898,-74158.044206
1010.495150,-4589.276840,-4145.153275,-76609.549800
1010.497695,5033.400406,-7846.182985,-75383.797003
1010.500240,11251.130318,-296.082377,-72779.072310
1010.502785,-444.123565,-1480.411884,-75537.016103
1010.505331,-1628.453072,-1480.411884,-74924.139704
1010.507876,1628.453072,-6957.935855,-74311.263306
1010.510421,-3997.112087,-2368.659014,-74158.044206
1010.512966,9770.718434,2516.700203,-73391.948708
1010.515512,5329.482782,2072.576638,-73851.606007
1010.518057,5625.565159,9030.512492,-75077.358804
1010.520602,-2072.576638,-5773.606348,-74617.701505
1010.523148,-3701.029710,-8586.388927,-76456.330700
1010.525693,2220.617826,-6513.812290,-75383.797003
1010.528238,6069.688724,4441.235652,-74770.920605
1010.530783,2368.659014,5329.482782,-75843.454302
1010.533329,888.247130,-2664.741391,-75383.797003
1010.535874,5477.523971,4589.276840,-75996.673402
1010.538419,9030.512492,-5033.400406,-76456.330700
1010.540964,3108.864956,-5625.565159,-76456.330700
1010.543510,14359.995275,-888.247130,-74004.825107
1010.546061,8882.471304,3256.906145,-75537.016103
1010.548612,1924.535449,-888.247130,-76609.549800
1010.551163,13323.706956,740.205942,-76303.111601
1010.553715,-13619.789333,-1480.411884,-78141.740796
1010.556266,7550.100608,888.247130,-74924.139704
1010.558817,12435.459826,-1332.370696,-75690.235202
1010.561368,-11695.253884,1332.370696,-75690.235202
1010.563920,10066.800811,3552.988522,-74311.263306
1010.566471,-6069.688724,-444.123565,-76149.892501
1010.569022,4145.153275,3404.947333,-74924.139704
1010.571573,-4145.153275,5773.606348,-76456.330700
1010.574125,-5329.482782,5773.606348,-77375.645298
1010.576676,-1332.370696,-4293.194464,-76303.111601
1010.579227,6809.894666,8142.265362,-73085.510509
1010.581778,5329.482782,9622.677246,-73238.729609
1010.584329,3997.112087,3701.029710,-73698.386908
1010.586881,-3701.029710,-7994.224174,-76915.987999
1010.589432,-8586.388927,4293.194464,-74924.139704
1010.591983,16136.489536,8438.347739,-74770.920605
1010.594534,-8882.471304,6513.812290,-75690.235202
1010.597086,4145.153275,148.041188,-73698.386908
1010.599637,3701.029710,1184.329507,-73851.606007
1010.602188,-2664.741391,-3701.029710,-75383.797003
1010.604739,-9622.677246,-4589.276840,-76149.892501
1010.607291,7254.018232,2516.700203,-73391.948708
1010.609842,8438.347739,7994.224174,-75996.673402
1010.612393,11843.295072,8290.306550,-74311.263306
1010.614944,-444.123565,-6957.935855,-74924.139704
1010.617496,-3256.906145,888.247130,-75230.577904
1010.620047,1036.288319,11991.336260,-76303.111601
1010.622598,296.082377,1036.288319,-75996.673402
1010.625149,-14508.036463,2516.700203,-75537.016103
1010.627700,6513.812290,5033.400406,-74617.701505
1010.630252,-12879.583391,1480.411884,-76149.892501
1010.632803,-4589.276840,-3701.029710,-75996.673402
1010.635354,3997.112087,8586.388927,-74464.482406
1010.637905,10510.924376,10807.006753,-75690.235202
1010.640457,-18209.066173,-1480.411884,-77835.302597
1010.643008,12435.459826,-4441.235652,-72932.291410
1010.645559,4293.194464,1924.535449,-72319.415011
1010.648115,12139.377449,15544.324782,-73545.167808
1010.650670,-25167.002028,-12879.583391,-81052.903688
1010.653226,-6513.812290,3552.988522,-75843.454302
1010.655781,23242.466579,14063.912898,-72166.195912
1010.658337,1184.329507,-1480.411884,-78754.617194
1010.660892,-1480.411884,-14211.954086,-77375.645298
1010.663448,16136.489536,-7105.977043,-71093.662214
1010.666003,11843.295072,4589.276840,-73085.510509
1010.668559,-2220.617826,148.041188,-78294.959896
1010.671115,-12583.501014,-5625.565159,-78448.178995
1010.673670,5773.606348,-2664.741391,-76456.330700
1010.676226,13619.789333,5477.523971,-73085.510509
1010.678781,-5033.400406,592.164754,-75383.797003
1010.681337,11251.130318,-6365.771101,-74617.701505
1010.683892,7698.141797,-4885.359217,-74311.263306
1010.686448,5921.647536,-4441.235652,-76303.111601
1010.689003,-2220.617826,-3256.906145,-75843.454302
1010.691559,4441.235652,2368.659014,-74617.701505
1010.694114,444.123565,-3108.864956,-74311.263306
1010.696670,-1776.494261,4293.194464,-74158.044206
1010.699226,6957.935855,9326.594869,-75077.358804
1010.701781,1184.329507,3108.864956,-77069.207099
1010.704337,-8290.306550,-6809.894666,-76456.330700
1010.706892,-7994.224174,-12731.542202,-75537.016103
1010.709448,4145.153275,1332.370696,-74770.920605
1010.712003,5921.647536,12139.377449,-74617.701505
1010.714559,-1036.288319,-888.247130,-75843.454302
1010.717114,0.000000,-14063.912898,-75843.454302
1010.719670,296.082377,2960.823768,-73851.606007
1010.722225,10658.965565,0.000000,-75230.577904
1010.724781,-296.082377,-2516.700203,-75383.797003
1010.727337,13915.871710,-1776.494261,-73238.729609
1010.729892,12731.542202,2812.782580,-74770.920605
1010.732448,8586.388927,2516.700203,-76149.892501
1010.735003,12583.501014,-2220.617826,-75383.797003
1010.737559,-18653.189738,-5477.523971,-78448.178995
1010.740114,7994.224174,1332.370696,-74311.263306
1010.742670,5625.565159,-2960.823768,-74924.139704
1010.745225,-5921.647536,5773.606348,-75077.358804
1010.747781,2664.741391,1332.370696,-75077.358804
1010.750340,1776.494261,592.164754,-75537.016103
1010.752899,9474.636058,1332.370696,-74464.482406
1010.755459,-2960.823768,2220.617826,-75843.454302
1010.758018,-1776.494261,-1036.288319,-76762.768900
1010.760577,-4885.359217,-3701.029710,-76303.111601
1010.763136,7254.018232,10066.800811,-73085.510509
1010.765696,1332.370696,9918.759623,-75690.235202
1010.768255,-5329.482782,3404.947333,-76609.549800
1010.770814,-11991.336260,-8882.471304,-77835.302597
1010.773374,-296.082377,6957.935855,-74464.482406
1010.775933,-2220.617826,148.041188,-75690.235202
1010.778492,2812.782580,4145.153275,-74464.482406
1010.781051,5773.606348,-3256.906145,-75230.577904
1010.783611,-740.205942,14804.118840,-74464.482406
1010.786170,3552.988522,3849.070898,-76609.549800
1010.788729,-7550.100608,592.164754,-75537.016103
1010.791288,3404.947333,-148.041188,-75077.358804
1010.793848,888.247130,1036.288319,-75230.577904
1010.796407,4145.153275,6217.729913,-74004.825107
1010.798966,1480.411884,7550.100608,-73545.167808
1010.801525,3849.070898,6217.729913,-74158.044206
1010.804085,4145.153275,9770.718434,-75537.016103
1010.806644,-10066.800811,8586.388927,-76609.549800
1010.809203,-2368.659014,2368.659014,-75996.673402
1010.811763,1036.288319,4293.194464,-74770.920605
1010.814322,-1036.288319,4145.153275,-75690.235202
1010.816881,-6809.894666,3256.906145,-74924.139704
1010.819440,11103.089130,15100.201217,-73698.386908
1010.822000,-10362.883188,-740.205942,-77528.864398
1010.824559,5329.482782,-1480.411884,-75230.577904
1010.827118,6217.729913,1480.411884,-73851.606007
1010.829677,5625.565159,12139.377449,-71706.538613
1010.832237,-1332.370696,-4737.318029,-76609.549800
1010.834796,-20577.725188,-5625.565159,-78601.398095
1010.837355,14656.077652,3108.864956,-73238.729609
1010.839914,12583.501014,4885.359217,-76456.330700
1010.842474,-6365.771101,-9178.553681,-78754.617194
1010.845033,9918.759623,-9918.759623,-73391.948708
1010.847592,10214.842000,3849.070898,-71246.881314
1010.850152,11695.253884,2072.576638,-75537.016103
1010.852685,-13323.706956,-7550.100608,-78601.398095
1010.855218,2368.659014,-1036.288319,-75537.016103
1010.857752,9918.759623,-1776.494261,-75230.577904
1010.860285,1036.288319,1776.494261,-74617.701505
1010.862819,8142.265362,-2664.741391,-74617.701505
1010.865352,4885.359217,-5625.565159,-75230.577904
1010.867886,5181.441594,-4441.235652,-76303.111601
1010.870419,4737.318029,-592.164754,-75843.454302
1010.872953,6513.812290,8142.265362,-75843.454302
1010.875486,6217.729913,7105.977043,-76456.330700
1010.878020,-7254.018232,-8290.306550,-77069.207099
1010.880553,4441.235652,1628.453072,-75537.016103
1010.883087,3997.112087,3108.864956,-75077.358804
1010.885620,3997.112087,-5625.565159,-75230.577904
1010.888154,3849.070898,-3849.070898,-74924.139704
1010.890687,1184.329507,-4589.276840,-75383.797003
1010.893221,0.000000,-3108.864956,-74617.701505
1010.895754,3552.988522,-3701.029710,-74617.701505
1010.898288,-1776.494261,-11251.130318,-74617.701505
1010.900821,11695.253884,-1480.411884,-73391.948708
1010.903355,6365.771101,3256.906145,-77069.207099
1010.905888,-4145.153275,-1924.535449,-75843.454302
1010.908421,7402.059420,-5773.606348,-73238.729609
1010.910955,3701.029710,-6365.771101,-74004.825107
1010.913488,17320.819043,-592.164754,-74770.920605
1010.916022,-10807.006753,-5329.482782,-77835.302597
1010.918555,2960.823768,2516.700203,-74924.139704
1010.921089,10955.047942,1480.411884,-74617.701505
1010.923622,-19689.478057,13915.871710,-76303.111601
1010.926156,4145.153275,10066.800811,-74464.482406
1010.928689,-1184.329507,-1332.370696,-76915.987999
1010.931223,-2516.700203,-1036.288319,-76149.892501
1010.933756,9918.759623,3997.112087,-73698.386908
1010.936290,5921.647536,8734.430116,-74770.920605
1010.938823,-3552.988522,-3997.112087,-77528.864398
1010.941357,-12287.418637,4737.318029,-75230.577904
1010.943890,14359.995275,13323.706956,-72779.072310
1010.946424,296.082377,4589.276840,-76303.111601
1010.948957,-14211.954086,-11843.295072,-78601.398095
1010.951491,-5921.647536,-1332.370696,-75537.016103
1010.954032,-6069.688724,-6957.935855,-75230.577904
1010.956574,9622.677246,8882.471304,-73085.510509
1010.959115,1628.453072,7105.977043,-77222.426198
1010.961657,-4145.153275,5477.523971,-77682.083497
1010.964198,-11695.253884,-8734.430116,-77528.864398
1010.966740,2220.617826,-2664.741391,-73851.606007
1010.969282,3108.864956,1480.411884,-73085.510509
1010.971823,6365.771101,12287.418637,-74004.825107
1010.974365,-2368.659014,3701.029710,-77069.207099
1010.976906,-2072.576638,-8586.388927,-75996.673402
1010.979448,-16136.489536,-2812.782580,-75996.673402
1010.981989,-6513.812290,3108.864956,-74464.482406
1010.984531,4293.194464,7254.018232,-73698.386908
1010.987073,-5625.565159,5033.400406,-76915.987999
1010.989614,-8142.265362,1480.411884,-76915.987999
1010.992156,8142.265362,1480.411884,-74311.263306
1010.994697,1628.453072,10066.800811,-73238.729609
1010.997239,14211.954086,2960.823768,-75077.358804
1010.999780,-13767.830521,-3256.906145,-79520.712692
1011.002322,-888.247130,-592.164754,-75996.673402
1011.004864,-296.082377,9326.594869,-71553.319513
1011.007405,14804.118840,6661.853478,-73085.510509
1011.009947,-28571.949361,-12139.377449,-80133.589091
1011.012488,592.164754,-4589.276840,-74617.701505
1011.015030,17912.983796,-19541.436869,-73238.729609
1011.017571,11991.336260,444.123565,-73698.386908
1011.020113,-740.205942,3997.112087,-78141.740796
1011.022655,-13175.665768,-2516.700203,-75996.673402
1011.025196,14952.160028,-3552.988522,-71553.319513
1011.027738,5477.523971,3552.988522,-75843.454302
1011.030279,-14656.077652,-8882.471304,-80593.246390
1011.032821,2960.823768,-3256.906145,-76456.330700
1011.035362,2368.659014,2368.659014,-73238.729609
1011.037904,15840.407159,-148.041188,-72779.072310
1011.040446,0.000000,-10066.800811,-76609.549800
1011.042987,3256.906145,-5773.606348,-77375.645298
1011.045529,2220.617826,-9622.677246,-76303.111601
1011.048070,6513.812290,8586.388927,-74617.701505
1011.050612,8142.265362,7550.100608,-76149.892501
1011.053153,-8142.265362,-10955.047942,-78754.617194
1011.055702,-12879.583391,-16728.654289,-76303.111601
1011.058250,12583.501014,8586.388927,-72319.415011
1011.060799,6069.688724,8882.471304,-74617.701505
1011.063347,-2516.700203,-16728.654289,-77528.864398
1011.065896,592.164754,-16284.530724,-76609.549800
1011.068444,8142.265362,15692.365970,-74464.482406
1011.070993,6217.729913,6513.812290,-75077.358804
1011.073541,3997.112087,-8882.471304,-75690.235202
1011.076090,-3552.988522,0.000000,-75690.235202
1011.078638,25018.960840,-1184.329507,-72472.634111
1011.081187,9030.512492,5921.647536,-75537.016103
1011.083735,10955.047942,-10362.883188,-76762.768900
1011.086284,-1036.288319,4145.153275,-73545.167808
1011.088832,25167.002028,8882.471304,-71553.319513
1011.091381,-11547.212695,-10955.047942,-76303.111601
1011.093929,-3849.070898,-2072.576638,-77375.645298
1011.096478,-16432.571912,5477.523971,-76303.111601
1011.099026,4589.276840,10658.965565,-73238.729609
1011.101575,-1776.494261,5773.606348,-76456.330700
1011.104123,-13471.748144,6217.729913,-77835.302597
1011.106672,-6365.771101,-8586.388927,-78907.836294
1011.109220,3552.988522,-1924.535449,-73391.948708
1011.111769,21317.931130,11103.089130,-71093.662214
1011.114317,-18357.107362,5329.482782,-77988.521696
1011.116866,-11399.171507,-888.247130,-76762.768900
1011.119414,4885.359217,4441.235652,-73391.948708
1011.121963,11103.089130,7698.141797,-74464.482406
1011.124511,-6217.729913,1480.411884,-77222.426198
1011.127060,-1480.411884,-148.041188,-74770.920605
1011.129608,5329.482782,5329.482782,-75383.797003
1011.132157,-1776.494261,10510.924376,-75843.454302
1011.134705,-6365.771101,-18061.024985,-77069.207099
1011.137254,-24574.837274,-15396.283594,-78294.959896
1011.139802,6069.688724,13471.748144,-71093.662214
1011.142351,22058.137072,23390.507767,-71246.881314
1011.144899,10510.924376,4441.235652,-75690.235202
1011.147448,-14952.160028,-20133.601622,-77988.521696
1011.149996,-18505.148550,-7254.018232,-75230.577904
1011.152545,18209.066173,13471.748144,-73238.729609
1011.155093,-9030.512492,13471.748144,-76762.768900
1011.157648,-20429.683999,-7254.018232,-78601.398095
1011.160202,2664.741391,5181.441594,-72472.634111
1011.162756,17912.983796,13027.624579,-73545.167808
1011.165311,-7846.182985,-1036.288319,-77375.645298
1011.167865,-12287.418637,-6217.729913,-78294.959896
1011.170420,17616.901420,-592.164754,-72472.634111
1011.172974,15692.365970,18357.107362,-73545.167808
1011.175528,-33309.267390,-8882.471304,-80593.246390
1011.178083,-6217.729913,6513.812290,-74464.482406
1011.180637,25018.960840,15248.242405,-70480.785816
1011.183192,-1776.494261,-6365.771101,-78448.178995
1011.185746,-1628.453072,-18653.189738,-77988.521696
1011.188300,16284.530724,-1628.453072,-72166.195912
1011.190855,16284.530724,8882.471304,-72779.072310
1011.193409,-13175.665768,-2220.617826,-78448.178995
1011.195964,-11843.295072,-7846.182985,-76303.111601
1011.198518,2368.659014,-4885.359217,-75537.016103
1011.201072,12139.377449,5033.400406,-73698.386908
1011.203627,6513.812290,2664.741391,-77835.302597
1011.206181,-15988.448347,-5033.400406,-78448.178995
1011.208736,7402.059420,2516.700203,-73085.510509
1011.211290,14211.954086,3256.906145,-73085.510509
1011.213844,8882.471304,-5033.400406,-75537.016103
1011.216399,-8142.265362,-13471.748144,-77222.426198
1011.218953,444.123565,5625.565159,-76149.892501
1011.221508,1184.329507,7698.141797,-74770.920605
1011.224062,3404.947333,3552.988522,-74617.701505
1011.226616,740.205942,-1036.288319,-75383.797003
1011.229171,-2072.576638,-12287.418637,-76762.768900
1011.231725,1924.535449,0.000000,-75843.454302
1011.234280,2072.576638,9474.636058,-75690.235202
1011.236834,-6069.688724,-8734.430116,-77222.426198
1011.239388,3701.029710,-8734.430116,-74924.139704
1011.241943,5033.400406,3552.988522,-75383.797003
1011.244497,3552.988522,-1036.288319,-77222.426198
1011.247052,2664.741391,-4145.153275,-75843.454302
1011.249606,14359.995275,-3701.029710,-72779.072310
1011.252160,17912.983796,4885.359217,-74311.263306
1011.254715,-11991.336260,296.082377,-77375.645298
1011.257269,13471.748144,-592.164754,-76609.549800
1011.259828,9918.759623,-1332.370696,-75690.235202
1011.262386,-9326.594869,14656.077652,-74617.701505
1011.264945,3701.029710,5033.400406,-75690.235202
1011.267504,-11251.130318,-1332.370696,-76915.987999
1011.270062,5773.606348,2368.659014,-72779.072310
1011.272621,8882.471304,10214.842000,-73545.167808
1011.275179,592.164754,-592.164754,-78141.740796
1011.277738,-6513.812290,-10066.800811,-77375.645298
1011.280297,16432.571912,10807.006753,-71093.662214
1011.282855,6365.771101,12139.377449,-73085.510509
1011.285414,-14359.995275,-296.082377,-77682.083497
1011.287972,-15840.407159,-12287.418637,-79214.274493
1011.290531,-6957.935855,-7846.182985,-76609.549800
1011.293090,7254.018232,10214.842000,-73698.386908
1011.295648,4589.276840,15840.407159,-73545.167808
1011.298207,-7105.977043,-11547.212695,-74311.263306
1011.300765,-2072.576638,888.247130,-73851.606007
1011.303324,4441.235652,4293.194464,-74617.701505
1011.305883,6069.688724,296.082377,-75996.673402
1011.308441,-444.123565,5477.523971,-77222.426198
1011.311000,-3997.112087,4293.194464,-76609.549800
1011.313558,-3552.988522,5181.441594,-73851.606007
1011.316117,444.123565,11695.253884,-74311.263306
1011.318676,3256.906145,2664.741391,-75537.016103
1011.321234,-7254.018232,1332.370696,-76762.768900
1011.323793,-148.041188,5477.523971,-76149.892501
1011.326351,-1184.329507,2516.700203,-74924.139704
1011.328910,4885.359217,8586.388927,-73545.167808
1011.331469,-1924.535449,592.164754,-76609.549800
1011.334027,-8586.388927,-2368.659014,-77528.864398
1011.336586,5329.482782,-1184.329507,-75383.797003
1011.339144,17024.736666,18653.189738,-73238.729609
1011.341707,-16284.530724,-4293.194464,-78907.836294
1011.344269,-14952.160028,2072.576638,-75843.454302
1011.346832,14359.995275,7846.182985,-71246.881314
1011.349394,22798.343014,4145.153275,-72932.291410
1011.351956,1480.411884,-1480.411884,-78294.959896
1011.354518,3108.864956,-8142.265362,-77375.645298
1011.357081,9178.553681,2812.782580,-70787.224015
1011.359643,26203.290347,8142.265362,-70787.224015
1011.362205,-7550.100608,-10510.924376,-77069.207099
1011.364768,-5181.441594,-4293.194464,-77375.645298
1011.367330,10214.842000,1036.288319,-74311.263306
1011.369892,12435.459826,8438.347739,-75843.454302
1011.372455,-16432.571912,-8882.471304,-79214.274493
1011.375017,4737.318029,-4737.318029,-73238.729609
1011.377579,16728.654289,-2664.741391,-72625.853210
1011.380141,15692.365970,10066.800811,-74924.139704
1011.382704,-3256.906145,-10214.842000,-78294.959896
1011.385266,-1924.535449,-10955.047942,-76149.892501
1011.387828,8290.306550,18061.024985,-73698.386908
1011.390391,2812.782580,13767.830521,-76303.111601
1011.392953,-4145.153275,-17172.777854,-76303.111601
1011.395515,148.041188,-13915.871710,-76149.892501
1011.398078,6661.853478,8438.347739,-75537.016103
1011.400640,3552.988522,2664.741391,-76303.111601
1011.403202,1776.494261,-14508.036463,-74617.701505
1011.405765,6217.729913,1924.535449,-72779.072310
1011.408327,13027.624579,2516.700203,-75537.016103
1011.410889,10066.800811,-2368.659014,-77988.521696
1011.413451,-5329.482782,-14063.912898,-76762.768900
1011.416014,22946.384202,-5329.482782,-71553.319513
1011.418576,5033.400406,-2812.782580,-74617.701505
1011.421138,-10510.924376,-2812.782580,-77069.207099
1011.423701,3108.864956,-3108.864956,-76456.330700
1011.426263,-11251.130318,15544.324782,-75383.797003
1011.428825,8290.306550,9474.636058,-74924.139704
1011.431388,-20577.725188,-5477.523971,-78601.398095
1011.433950,3552.988522,-1036.288319,-74004.825107
1011.436512,6661.853478,10955.047942,-73545.167808
1011.439074,-3552.988522,4293.194464,-77835.302597
1011.441637,-9326.594869,-3701.029710,-79214.274493
1011.444202,-9770.718434,6661.853478,-76149.892501
1011.446767,16284.530724,12435.459826,-72319.415011
1011.449333,2072.576638,8142.265362,-73851.606007
1011.451898,-13175.665768,-12139.377449,-79061.055394
1011.454463,-9622.677246,-7254.018232,-76762.768900
1011.457029,5921.647536,10955.047942,-75537.016103
1011.459594,3256.906145,5329.482782,-76609.549800
1011.462159,-7105.977043,-9030.512492,-74464.482406
1011.464725,-4293.194464,6365.771101,-73391.948708
1011.467290,1184.329507,7846.182985,-73851.606007
1011.469855,9030.512492,13323.706956,-75843.454302
1011.472421,4885.359217,14952.160028,-77528.864398
1011.474986,-5773.606348,-5625.565159,-77528.864398
1011.477551,-14952.160028,-2960.823768,-74158.044206
1011.480117,3404.947333,14804.118840,-72779.072310
1011.482682,-3256.906145,11695.253884,-75843.454302
1011.485247,-17468.860231,-148.041188,-77835.302597
1011.487813,1776.494261,-1776.494261,-76456.330700
1011.490378,11843.295072,14804.118840,-72932.291410
1011.492943,-888.247130,-5625.565159,-76609.549800
1011.495509,-15396.283594,-5773.606348,-76303.111601
1011.498074,11251.130318,296.082377,-71706.538613
1011.500639,17468.860231,20281.642811,-72932.291410
1011.503205,-20429.683999,5625.565159,-76456.330700
1011.505770,-33013.185013,-13027.624579,-81052.903688
1011.508335,11399.171507,-1036.288319,-71706.538613
1011.510901,20133.601622,3997.112087,-72319.415011
1011.513466,-3997.112087,-2220.617826,-78448.178995
1011.516031,3997.112087,-9474.636058,-76609.549800
1011.518597,16432.571912,6217.729913,-71553.319513
1011.521162,14952.160028,6069.688724,-75077.358804
1011.523727,-14508.036463,-10214.842000,-78601.398095
1011.526293,-1628.453072,-5181.441594,-74924.139704
1011.528858,11399.171507,6217.729913,-73545.167808
1011.531423,1332.370696,-7846.182985,-78448.178995
1011.533989,-12435.459826,-3256.906145,-79061.055394
1011.536554,11399.171507,-4589.276840,-73238.729609
1011.539119,16580.613101,6513.812290,-72166.195912
1011.541685,9770.718434,6069.688724,-75537.016103
1011.544250,-6217.729913,-13323.706956,-77682.083497
1011.546817,2960.823768,-6069.688724,-75537.016103
1011.549385,3108.864956,-3256.906145,-74924.139704
1011.551952,8586.388927,-592.164754,-73851.606007
1011.554519,3108.864956,-2960.823768,-74464.482406
1011.557086,3256.906145,-6513.812290,-75230.577904
1011.559654,2516.700203,-15840.407159,-75996.673402
1011.562221,7550.100608,-11695.253884,-74770.920605
1011.564788,5329.482782,9622.677246,-74617.701505
1011.567355,12435.459826,5921.647536,-74311.263306
1011.569923,1924.535449,-4145.153275,-76303.111601
1011.572490,2812.782580,-8142.265362,-73851.606007
1011.575057,24870.919651,4293.194464,-73391.948708
1011.577624,-5773.606348,3997.112087,-79367.493593
1011.580192,-1480.411884,-888.247130,-76456.330700
1011.582759,6661.853478,-3997.112087,-74464.482406
1011.585326,3997.112087,12139.377449,-72012.976812
1011.587893,-148.041188,4737.318029,-74924.139704
1011.590461,-19393.395680,-2516.700203,-77835.302597
1011.593028,9030.512492,7550.100608,-75077.358804
1011.595595,4737.318029,7402.059420,-74311.263306
1011.598162,4145.153275,5033.400406,-76915.987999
1011.600730,-12879.583391,-6957.935855,-76762.768900
1011.603297,15840.407159,8586.388927,-71859.757712
1011.605864,7402.059420,10955.047942,-73545.167808
1011.608431,-12583.501014,2220.617826,-77682.083497
1011.610999,-13027.624579,-6661.853478,-77682.083497
1011.613566,2516.700203,11547.212695,-74158.044206
1011.616133,3701.029710,13027.624579,-74464.482406
1011.618700,148.041188,-1628.453072,-75690.235202
1011.621268,-9474.636058,-17024.736666,-74924.139704
1011.623835,-3849.070898,8882.471304,-72779.072310
1011.626402,-1628.453072,2516.700203,-74924.139704
1011.628970,4145.153275,4737.318029,-74464.482406
1011.631537,3404.947333,5477.523971,-76915.987999
1011.634104,1036.288319,9178.553681,-75230.577904
1011.636671,-2072.576638,6661.853478,-75383.797003
1011.639239,-5921.647536,3108.864956,-73851.606007
1011.641806,-4441.235652,2960.823768,-75230.577904
1011.644373,-8142.265362,3256.906145,-77069.207099
1011.646940,888.247130,8290.306550,-76609.549800
1011.649509,-14508.036463,3701.029710,-77528.864398
1011.652078,20133.601622,6217.729913,-72932.291410
1011.654647,3108.864956,6513.812290,-74617.701505
1011.657216,3849.070898,12731.542202,-75230.577904
1011.659785,-19541.436869,-7846.182985,-79520.712692
1011.662355,17616.901420,9918.759623,-72472.634111
1011.664924,9326.594869,8142.265362,-74770.920605
1011.667493,-13175.665768,-7994.224174,-77835.302597
1011.670062,8290.306550,-16432.571912,-73851.606007
1011.672631,13175.665768,3849.070898,-72319.415011
1011.675200,7994.224174,4885.359217,-77069.207099
1011.677769,-15988.448347,-2516.700203,-78601.398095
1011.680338,10807.006753,-5625.565159,-72625.853210
1011.682907,14063.912898,4737.318029,-72166.195912
1011.685476,-2812.782580,-5033.400406,-77528.864398
1011.688045,-3997.112087,-8882.471304,-77528.864398
1011.690614,12139.377449,1776.494261,-74004.825107
1011.693183,2812.782580,2516.700203,-75230.577904
1011.695752,592.164754,1776.494261,-76915.987999
1011.698321,5181.441594,-6365.771101,-75843.454302
1011.700890,-5329.482782,-12287.418637,-75537.016103
1011.703459,5033.400406,-9326.594869,-74617.701505
1011.706028,3997.112087,-9474.636058,-75537.016103
1011.708597,7254.018232,-7698.141797,-75383.797003
1011.711166,4737.318029,2072.576638,-74617.701505
1011.713735,1924.535449,-9918.759623,-74924.139704
1011.716304,7994.224174,148.041188,-75690.235202
1011.718873,2220.617826,296.082377,-75230.577904
1011.721442,3701.029710,-1628.453072,-77222.426198
1011.724011,7698.141797,-3552.988522,-76149.892501
1011.726580,8290.306550,-1332.370696,-76149.892501
1011.729150,-2960.823768,-8290.306550,-76609.549800
1011.731719,15692.365970,-2516.700203,-74158.044206
1011.734288,13323.706956,-444.123565,-74158.044206
1011.736857,-2516.700203,-296.082377,-76149.892501
1011.739426,2664.741391,-2368.659014,-77069.207099
1011.741995,-19837.519246,11695.253884,-74617.701505
1011.744564,12583.501014,10955.047942,-73238.729609
1011.747133,-19097.313304,-2812.782580,-77835.302597
1011.749702,-8586.388927,-1480.411884,-77835.302597
1011.752272,1184.329507,740.205942,-74311.263306
1011.754842,17172.777854,11843.295072,-73238.729609
1011.757411,-7105.977043,-3701.029710,-77528.864398
1011.759981,-3404.947333,888.247130,-74004.825107
1011.762551,15248.242405,13767.830521,-71859.757712
1011.765121,-3404.947333,5477.523971,-76609.549800
1011.767691,-18801.230927,-7254.018232,-78294.959896
1011.770261,-7994.224174,1036.288319,-76456.330700
1011.772831,2664.741391,15100.201217,-75077.358804
1011.775401,7698.141797,15100.201217,-73851.606007
1011.777971,3849.070898,17616.901420,-74158.044206
1011.780540,-1924.535449,15248.242405,-73085.510509
1011.783110,2072.576638,7105.977043,-76149.892501
1011.785680,-3997.112087,4145.153275,-77375.645298
1011.788250,-5921.647536,-5477.523971,-77222.426198
1011.790820,-2072.576638,9918.759623,-74617.701505
1011.793390,6957.935855,12731.542202,-74464.482406
1011.795960,-10510.924376,5181.441594,-74924.139704
1011.798530,-3404.947333,-2368.659014,-74770.920605
1011.801100,10658.965565,8142.265362,-75996.673402
1011.803669,-11695.253884,-2960.823768,-79214.274493
1011.806239,3552.988522,-444.123565,-76149.892501
1011.808809,13767.830521,8438.347739,-72932.291410
1011.811379,1332.370696,5625.565159,-72625.853210
1011.813949,-17468.860231,-6365.771101,-77682.083497
1011.816519,7550.100608,1776.494261,-74464.482406
1011.819089,15988.448347,4589.276840,-74311.263306
1011.821659,-10658.965565,-8438.347739,-78448.178995
1011.824228,3701.029710,-14952.160028,-74770.920605
1011.826798,8290.306550,2516.700203,-71246.881314
1011.829368,10362.883188,7846.182985,-74617.701505
1011.831938,-16580.613101,-2368.659014,-79214.274493
1011.834508,13175.665768,-6069.688724,-73698.386908
1011.837078,12879.583391,4293.194464,-74004.825107
1011.839648,-4441.235652,-2368.659014,-77682.083497
1011.842218,-7994.224174,-6217.729913,-77222.426198
1011.844788,7254.018232,-740.205942,-75230.577904
1011.847357,-5033.400406,1184.329507,-74924.139704
1011.849927,19245.354492,-1924.535449,-74464.482406
1011.852497,10658.965565,-1480.411884,-74158.044206
1011.855068,6365.771101,8290.306550,-75843.454302
1011.857638,-5033.400406,4737.318029,-77222.426198
1011.860209,-4441.235652,-9326.594869,-76456.330700
1011.862780,3552.988522,-6809.894666,-74770.920605
1011.865350,4737.318029,3997.112087,-75230.577904
1011.867921,11399.171507,10066.800811,-76149.892501
1011.870492,-2516.700203,-5181.441594,-76762.768900
1011.873062,-1480.411884,-21614.013506,-74158.044206
1011.875633,5329.482782,-12435.459826,-74158.044206
1011.878203,17468.860231,-8882.471304,-75077.358804
1011.880774,-1924.535449,-10807.006753,-77528.864398
1011.883345,16284.530724,740.205942,-74770.920605
1011.885915,-2960.823768,-1332.370696,-76456.330700
1011.888486,9474.636058,740.205942,-74924.139704
1011.891057,3997.112087,-7254.018232,-75383.797003
1011.893627,2516.700203,5329.482782,-72472.634111
1011.896198,740.205942,-2072.576638,-75230.577904
1011.898768,-11991.336260,-1332.370696,-76303.111601
1011.901339,-740.205942,4145.153275,-75537.016103
1011.903910,-1332.370696,7105.977043,-75230.577904
1011.906480,6957.935855,1628.453072,-76915.987999
1011.909051,-6069.688724,-4737.318029,-75843.454302
1011.911621,15692.365970,7402.059420,-72932.291410
1011.914192,-2072.576638,9622.677246,-75537.016103
1011.916763,-9622.677246,296.082377,-77222.426198
1011.919333,-4441.235652,-740.205942,-75077.358804
1011.921904,-444.123565,9326.594869,-75383.797003
1011.924475,-740.205942,1036.288319,-77222.426198
1011.927045,-2516.700203,-9622.677246,-76609.549800
1011.929616,-6069.688724,740.205942,-74617.701505
1011.932186,3701.029710,20577.725188,-73545.167808
1011.934757,10066.800811,7105.977043,-74004.825107
1011.937328,1332.370696,2220.617826,-76456.330700
1011.939898,-8290.306550,-14508.036463,-78448.178995
1011.942469,-5181.441594,6809.894666,-75230.577904
1011.945040,7402.059420,14359.995275,-74617.701505
1011.947610,-21317.931130,9770.718434,-75230.577904
1011.950181,-7254.018232,-4293.194464,-75230.577904
1011.952751,2812.782580,9770.718434,-72472.634111
1011.955322,16876.695478,2072.576638,-76149.892501
1011.957893,-19245.354492,-3256.906145,-79980.369991
1011.960465,5477.523971,1036.288319,-73391.948708
1011.963036,20873.807564,23242.466579,-69561.471218
1011.965608,-13027.624579,11399.171507,-73085.510509
1011.968179,-32865.143825,-12139.377449,-81206.122788
1011.970751,6809.894666,-1184.329507,-75996.673402
1011.973322,22502.260637,592.164754,-73545.167808
1011.975894,1480.411884,740.205942,-77069.207099
1011.978465,-4737.318029,-11695.253884,-75537.016103
1011.981037,16432.571912,7550.100608,-69867.909418
1011.983608,13027.624579,3997.112087,-75537.016103
1011.986180,-14804.118840,-9474.636058,-80440.027290
1011.988751,0.000000,-7698.141797,-77222.426198
1011.991322,8586.388927,9918.759623,-73391.948708
1011.993894,3256.906145,-3849.070898,-74311.263306
1011.996465,-4441.235652,-9030.512492,-75690.235202
1011.999037,-7698.141797,-8734.430116,-76609.549800
1012.001608,16284.530724,-6217.729913,-73085.510509
1012.004180,16432.571912,12435.459826,-74464.482406
1012.006751,-5773.606348,-6365.771101,-77835.302597
1012.009323,-14656.077652,-19985.560434,-75996.673402
1012.011894,2220.617826,12435.459826,-73545.167808
1012.014466,8290.306550,2368.659014,-76303.111601
1012.017037,4145.153275,-18653.189738,-75843.454302
1012.019609,2516.700203,-4737.318029,-76149.892501
1012.022180,5033.400406,8882.471304,-75077.358804
1012.024751,-1480.411884,-1332.370696,-74464.482406
1012.027323,4737.318029,-5773.606348,-75537.016103
1012.029894,2960.823768,-17912.983796,-76456.330700
1012.032466,26647.413912,-4441.235652,-73085.510509
1012.035037,1924.535449,-888.247130,-76762.768900
1012.037609,12583.501014,740.205942,-74311.263306
1012.040180,13619.789333,-4441.235652,-73545.167808
1012.042752,0.000000,9178.553681,-73085.510509
1012.045323,-1332.370696,1776.494261,-75537.016103
1012.047895,-23242.466579,-1924.535449,-78601.398095
1012.050466,-1480.411884,5033.400406,-74617.701505
1012.053038,-6069.688724,11843.295072,-74311.263306
1012.055609,-3108.864956,1036.288319,-76762.768900
1012.058180,-3701.029710,-9622.677246,-75383.797003
1012.060752,18801.230927,2220.617826,-72932.291410
1012.063323,2516.700203,3108.864956,-76609.549800
1012.065895,-10955.047942,3256.906145,-77528.864398
1012.068466,-13175.665768,-740.205942,-76915.987999
1012.071038,-888.247130,12435.459826,-74464.482406
1012.073609,2220.617826,9326.594869,-74770.920605
1012.076181,6513.812290,9030.512492,-76915.987999
1012.078752,-2220.617826,148.041188,-76609.549800
1012.081324,4885.359217,10066.800811,-73238.729609
1012.083895,5181.441594,2812.782580,-73085.510509
1012.086467,888.247130,2664.741391,-74464.482406
1012.089038,-4293.194464,3404.947333,-77069.207099
1012.091610,-2072.576638,6069.688724,-77375.645298
1012.094181,-592.164754,11695.253884,-75230.577904
1012.096753,-5773.606348,3108.864956,-74464.482406
1012.099324,2368.659014,7254.018232,-72319.415011
1012.101896,-2516.700203,444.123565,-75843.454302
1012.104467,-2516.700203,-1480.411884,-78294.959896
1012.107039,8734.430116,6809.894666,-75537.016103
1012.109610,5329.482782,13175.665768,-75996.673402
1012.112182,-23686.590144,-6513.812290,-76762.768900
1012.114753,18505.148550,9030.512492,-68948.594820
1012.117325,6069.688724,2516.700203,-73698.386908
1012.119896,-18061.024985,-10807.006753,-81206.122788
1012.122468,1184.329507,-17024.736666,-79367.493593
1012.125039,13175.665768,592.164754,-72472.634111
1012.127611,10214.842000,8438.347739,-72779.072310
1012.130182,-18653.189738,-5921.647536,-77069.207099
1012.132753,2072.576638,-6957.935855,-74464.482406
1012.135325,10955.047942,-1036.288319,-74924.139704
1012.137896,148.041188,-444.123565,-79673.931792
1012.140468,-8586.388927,-6957.935855,-78907.836294
1012.143039,9326.594869,444.123565,-71706.538613
1012.145611,10066.800811,-5033.400406,-72319.415011
1012.148182,-11399.171507,-9474.636058,-74617.701505
1012.150754,15692.365970,-7105.977043,-76303.111601
1012.153325,11695.253884,7254.018232,-75537.016103
1012.155897,11843.295072,13915.871710,-76762.768900
1012.158468,-1628.453072,-13915.871710,-75537.016103
1012.161040,1184.329507,-21614.013506,-74158.044206
1012.163612,11103.089130,5477.523971,-73545.167808
1012.166183,9326.594869,13767.830521,-76149.892501
1012.168755,-592.164754,-1776.494261,-77375.645298
1012.171327,-444.123565,-7402.059420,-76303.111601
1012.173899,4293.194464,1332.370696,-74770.920605
1012.176470,-2072.576638,-12139.377449,-75537.016103
1012.179042,9918.759623,-7550.100608,-72779.072310
1012.181614,18209.066173,592.164754,-74004.825107
1012.184186,13619.789333,-148.041188,-74464.482406
1012.186757,13323.706956,-4885.359217,-76456.330700
1012.189329,-29904.320057,5921.647536,-76915.987999
1012.191901,7105.977043,16136.489536,-70787.224015
1012.194473,-15544.324782,740.205942,-76762.768900
1012.197044,-23834.631332,2220.617826,-78448.178995
1012.199616,-5921.647536,3108.864956,-75843.454302
1012.202188,9622.677246,11843.295072,-75690.235202
1012.204760,-3108.864956,-4441.235652,-75383.797003
1012.207332,11843.295072,-1480.411884,-71400.100414
1012.209903,3997.112087,5625.565159,-74158.044206
1012.212475,-2368.659014,5921.647536,-75996.673402
1012.215047,-15988.448347,-5033.400406,-79214.274493
1012.217619,-11843.295072,8586.388927,-76303.111601
1012.220190,4589.276840,16432.571912,-74617.701505
1012.222762,19837.519246,20577.725188,-75077.358804
1012.225334,-13027.624579,-15396.283594,-75843.454302
1012.227906,2812.782580,-7994.224174,-73698.386908
1012.230477,9474.636058,23686.590144,-73238.729609
1012.233049,2220.617826,5477.523971,-76762.768900
1012.235621,-14804.118840,-9030.512492,-77682.083497
1012.238193,0.000000,1924.535449,-76762.768900
1012.240764,5033.400406,13619.789333,-74617.701505
1012.243336,-5625.565159,12879.583391,-75690.235202
1012.245908,-12435.459826,-2368.659014,-77375.645298
1012.248480,-9178.553681,-2664.741391,-76762.768900
1012.251051,25463.084405,10955.047942,-72319.415011
1012.253623,1184.329507,11843.295072,-77528.864398
1012.256195,-22502.260637,-6513.812290,-79061.055394
1012.258767,18505.148550,3404.947333,-70021.128517
1012.261338,5181.441594,6809.894666,-72012.976812
1012.263910,-15840.407159,-8586.388927,-78141.740796
1012.266453,19245.354492,-11399.171507,-75383.797003
1012.268995,13175.665768,3552.988522,-73698.386908
1012.271538,8142.265362,-592.164754,-76609.549800
1012.274081,-14804.118840,-3552.988522,-76915.987999
1012.276623,11695.253884,-3701.029710,-72932.291410
1012.279166,10214.842000,148.041188,-74924.139704
1012.281709,4441.235652,1480.411884,-77988.521696
1012.284251,-4145.153275,-5033.400406,-78141.740796
1012.286794,17912.983796,2664.741391,-72319.415011
1012.289336,6217.729913,2072.576638,-74158.044206
1012.291879,4441.235652,-3404.947333,-76149.892501
1012.294422,5329.482782,-2960.823768,-75383.797003
1012.296964,4145.153275,5625.565159,-76149.892501
1012.299507,6513.812290,1776.494261,-75537.016103
1012.302050,3849.070898,-8438.347739,-76915.987999
1012.304592,2516.700203,-6809.894666,-74311.263306
1012.307135,7550.100608,-888.247130,-73698.386908
1012.309677,4885.359217,2516.700203,-73085.510509
1012.312220,3849.070898,-3997.112087,-74464.482406
1012.314763,6217.729913,-9474.636058,-75230.577904
1012.317305,8438.347739,-1036.288319,-74004.825107
1012.319848,15692.365970,740.205942,-75383.797003
1012.322390,-13915.871710,888.247130,-76915.987999
1012.324933,13619.789333,-2220.617826,-72779.072310
1012.327476,5181.441594,-5477.523971,-72779.072310
1012.330018,11695.253884,3552.988522,-73698.386908
1012.332561,-25315.043216,-296.082377,-77988.521696
1012.335104,-6661.853478,-1776.494261,-78448.178995
1012.337646,2664.741391,6069.688724,-74770.920605
1012.340189,-4441.235652,14359.995275,-75383.797003
1012.342731,592.164754,-4441.235652,-77528.864398
1012.345274,3997.112087,3108.864956,-74004.825107
1012.347817,15100.201217,2220.617826,-76609.549800
1012.350359,-8438.347739,5773.606348,-77069.207099
1012.352902,15396.283594,6957.935855,-73391.948708
1012.355445,4737.318029,6513.812290,-73238.729609
1012.357987,-3849.070898,-2220.617826,-77222.426198
1012.360530,-10807.006753,-9770.718434,-77222.426198
1012.363072,7994.224174,3404.947333,-75537.016103
1012.365615,7550.100608,14508.036463,-75383.797003
1012.368163,592.164754,444.123565,-73698.386908
1012.370711,2664.741391,-3108.864956,-73698.386908
1012.373259,1776.494261,9918.759623,-74924.139704
1012.375807,1924.535449,10807.006753,-75843.454302
1012.378355,-4145.153275,9474.636058,-77988.521696
1012.380903,-6661.853478,2516.700203,-75843.454302
1012.383451,9326.594869,10955.047942,-72932.291410
1012.385999,-15988.448347,1184.329507,-75996.673402
1012.388547,-4145.153275,-1776.494261,-75383.797003
1012.391095,6957.935855,7105.977043,-73698.386908
1012.393642,-3701.029710,6661.853478,-77069.207099
1012.396190,-19985.560434,-1480.411884,-78601.398095
1012.398738,8734.430116,3849.070898,-72012.976812
1012.401286,7698.141797,1480.411884,-72166.195912
1012.403834,-15248.242405,-7550.100608,-77069.207099
1012.406382,10807.006753,-10510.924376,-75537.016103
1012.408930,12879.583391,6069.688724,-74158.044206
1012.411478,8586.388927,1628.453072,-75690.235202
1012.414026,-17616.901420,-3108.864956,-76303.111601
1012.416574,23390.507767,-5625.565159,-70480.785816
1012.419122,2960.823768,1776.494261,-76149.892501
1012.421670,-5921.647536,-6069.688724,-80133.589091
1012.424218,2516.700203,2220.617826,-77222.426198
1012.426766,21614.013506,6513.812290,-72779.072310
1012.429314,10955.047942,12731.542202,-73085.510509
1012.431861,8586.388927,-4737.318029,-76915.987999
1012.434409,-2072.576638,-7994.224174,-76762.768900
1012.436957,-148.041188,-10214.842000,-77069.207099
1012.439505,7402.059420,1184.329507,-74617.701505
1012.442053,6809.894666,6661.853478,-76456.330700
1012.444601,296.082377,-9622.677246,-75537.016103
1012.447149,-1036.288319,-13323.706956,-74617.701505
1012.449697,3256.906145,-3849.070898,-74158.044206
1012.452245,1036.288319,4441.235652,-75230.577904
1012.454793,-2220.617826,5625.565159,-77222.426198
1012.457341,-296.082377,-12731.542202,-78448.178995
1012.459889,-148.041188,-6217.729913,-74311.263306
1012.462437,18801.230927,-4293.194464,-71706.538613
1012.464985,6957.935855,740.205942,-74464.482406
1012.467533,16580.613101,-3849.070898,-77222.426198
1012.470085,-28127.825796,6809.894666,-77375.645298
1012.472638,6661.853478,10658.965565,-73085.510509
1012.475191,-15692.365970,3552.988522,-75996.673402
1012.477743,-14952.160028,1332.370696,-75843.454302
1012.480296,-9326.594869,2812.782580,-75843.454302
1012.482849,9918.759623,3552.988522,-76609.549800
1012.485401,-888.247130,-2664.741391,-76149.892501
1012.487954,18209.066173,5773.606348,-73851.606007
1012.490507,9918.759623,8142.265362,-74004.825107
1012.493059,4441.235652,4441.235652,-75537.016103
1012.495612,-10658.965565,740.205942,-77222.426198
1012.498165,-6809.894666,7550.100608,-76762.768900
1012.500717,1480.411884,-2072.576638,-76915.987999
1012.503270,5773.606348,-7254.018232,-75996.673402
1012.505823,888.247130,-4737.318029,-74464.482406
1012.508375,3849.070898,-7254.018232,-71553.319513
1012.510928,5033.400406,3404.947333,-72166.195912
1012.513481,6217.729913,11991.336260,-75383.797003
1012.516033,-8290.306550,9474.636058,-77528.864398
1012.518586,-11991.336260,3108.864956,-77988.521696
1012.521139,-7994.224174,9622.677246,-74004.825107
1012.523691,-1776.494261,5329.482782,-73851.606007
1012.526244,-14211.954086,-1332.370696,-74924.139704
1012.528796,8290.306550,2516.700203,-73698.386908
1012.531349,11991.336260,12583.501014,-75230.577904
1012.533902,-20577.725188,-5181.441594,-79520.712692
1012.536454,10066.800811,2072.576638,-73545.167808
1012.539007,7254.018232,3701.029710,-72625.853210
1012.541560,-15988.448347,-6957.935855,-77682.083497
1012.544112,6365.771101,-11843.295072,-75690.235202
1012.546665,14359.995275,7254.018232,-75690.235202
1012.549218,9030.512492,-1480.411884,-78141.740796
1012.551774,-15692.365970,-3108.864956,-79061.055394
1012.554330,2960.823768,-9178.553681,-73851.606007
1012.556886,9770.718434,-1628.453072,-73085.510509
1012.559442,6069.688724,740.205942,-77375.645298
1012.561998,-7846.182985,-5625.565159,-79980.369991
1012.564554,11991.336260,-5181.441594,-75690.235202
1012.567110,10807.006753,3849.070898,-73085.510509
1012.569666,2812.782580,-8882.471304,-75230.577904
1012.572222,1776.494261,-10362.883188,-73391.948708
1012.574778,13471.748144,12583.501014,-73698.386908
1012.577333,4145.153275,6809.894666,-75843.454302
1012.579889,740.205942,-9030.512492,-78294.959896
1012.582445,-2960.823768,-15692.365970,-75077.358804
1012.585001,1924.535449,-5033.400406,-73545.167808
1012.587557,6069.688724,7846.182985,-72472.634111
1012.590113,1924.535449,1480.411884,-74158.044206
1012.592669,444.123565,-8882.471304,-74924.139704
1012.595225,19245.354492,2812.782580,-75383.797003
1012.597781,1184.329507,740.205942,-77682.083497
1012.600337,3849.070898,-2664.741391,-74770.920605
1012.602893,14508.036463,-8882.471304,-72166.195912
1012.605449,21762.054695,10362.883188,-71706.538613
1012.608005,-9770.718434,1924.535449,-75843.454302
1012.610561,-15840.407159,4441.235652,-77528.864398
1012.613117,-3701.029710,-444.123565,-75996.673402
1012.615673,-22650.301825,6217.729913,-76456.330700
1012.618229,-6957.935855,-740.205942,-76915.987999
1012.620785,444.123565,7254.018232,-75690.235202
1012.623341,17468.860231,7994.224174,-77069.207099
1012.625897,-5477.523971,6809.894666,-75690.235202
1012.628453,19837.519246,7550.100608,-74464.482406
1012.631009,2072.576638,3701.029710,-74311.263306
1012.633565,-6513.812290,2960.823768,-76609.549800
1012.636121,-14804.118840,2516.700203,-77682.083497
1012.638677,3849.070898,-444.123565,-77222.426198
1012.641233,3256.906145,4589.276840,-76609.549800
1012.643789,888.247130,1184.329507,-75077.358804
1012.646345,5477.523971,3849.070898,-72779.072310
1012.648901,-1924.535449,6957.935855,-74464.482406
1012.651457,-8142.265362,7994.224174,-75690.235202
1012.654016,-5033.400406,444.123565,-76609.549800
1012.656574,-2368.659014,7402.059420,-74617.701505
1012.659133,-1628.453072,4441.235652,-74464.482406
1012.661692,-16136.489536,-1628.453072,-75537.016103
1012.664251,7994.224174,5773.606348,-72779.072310
1012.666810,11547.212695,13027.624579,-73698.386908
1012.669368,-12139.377449,-592.164754,-77682.083497
1012.671927,10066.800811,1776.494261,-75077.358804
1012.674486,4885.359217,5625.565159,-74004.825107
1012.677045,-5773.606348,-6809.894666,-74924.139704
1012.679604,11695.253884,-5773.606348,-74311.263306
1012.682162,13323.706956,592.164754,-75230.577904
1012.684721,15544.324782,5033.400406,-76762.768900
1012.687280,-11251.130318,-8438.347739,-77988.521696
1012.689839,16580.613101,-6661.853478,-72319.415011
1012.692398,4589.276840,-1036.288319,-74464.482406
1012.694957,-3404.947333,-5181.441594,-77835.302597
1012.697515,-5921.647536,-5625.565159,-77528.864398
1012.700074,6957.935855,-2072.576638,-75996.673402
1012.702633,1332.370696,-5477.523971,-75690.235202
1012.705192,-2220.617826,-6809.894666,-77222.426198
1012.707751,4589.276840,-1036.288319,-75077.358804
1012.710309,6513.812290,-148.041188,-74464.482406
1012.712868,11991.336260,-3701.029710,-74770.920605
1012.715427,6661.853478,1924.535449,-75843.454302
1012.717986,4885.359217,-3256.906145,-75996.673402
1012.720545,1036.288319,-15988.448347,-75077.358804
1012.723104,4589.276840,-6365.771101,-73391.948708
1012.725662,2368.659014,8142.265362,-75230.577904
1012.728221,-5033.400406,-6661.853478,-77069.207099
1012.730780,7550.100608,-5625.565159,-75077.358804
1012.733339,18357.107362,2072.576638,-74464.482406
1012.735898,11695.253884,-3701.029710,-73085.510509
1012.738456,16728.654289,740.205942,-75537.016103
1012.741015,-15248.242405,4589.276840,-76303.111601
1012.743574,9918.759623,13767.830521,-72319.415011
1012.746133,-12879.583391,592.164754,-77835.302597
1012.748692,-24870.919651,2960.823768,-78754.617194
1012.751251,-8290.306550,1332.370696,-75690.235202
1012.753809,10066.800811,15248.242405,-75077.358804
1012.756371,-1480.411884,2072.576638,-75843.454302
1012.758932,12435.459826,5033.400406,-74004.825107
1012.761494,-740.205942,9178.553681,-75996.673402
1012.764055,2812.782580,1036.288319,-75230.577904
1012.766617,-9918.759623,-2368.659014,-77069.207099
1012.769178,-6661.853478,11843.295072,-75843.454302
1012.771740,-4885.359217,2072.576638,-77375.645298
1012.774301,11103.089130,4589.276840,-75843.454302
1012.776863,-1480.411884,5477.523971,-75077.358804
1012.779424,1776.494261,-1332.370696,-72932.291410
1012.781986,8438.347739,10658.965565,-72779.072310
1012.784547,1184.329507,10362.883188,-74464.482406
1012.787109,-10214.842000,2368.659014,-76915.987999
1012.789670,-3552.988522,7846.182985,-75996.673402
1012.792232,-7105.977043,7846.182985,-76762.768900
1012.794793,-13323.706956,-3108.864956,-75690.235202
1012.797355,888.247130,4589.276840,-74158.044206
1012.799916,21021.848753,13915.871710,-72012.976812
1012.802478,-7698.141797,-1480.411884,-78294.959896
1012.805039,-1332.370696,-148.041188,-76762.768900
1012.807601,9030.512492,2664.741391,-73698.386908
1012.810162,-7254.018232,-8438.347739,-75690.235202
1012.812724,11843.295072,-10362.883188,-73545.167808
1012.815285,10658.965565,296.082377,-75077.358804
1012.817847,10066.800811,-1036.288319,-77988.521696
1012.820408,-13767.830521,-6661.853478,-78141.740796
1012.822970,24722.878463,-3256.906145,-71706.538613
1012.825531,1332.370696,2220.617826,-73238.729609
1012.828093,444.123565,148.041188,-76303.111601
1012.830654,-7254.018232,-6069.688724,-77835.302597
1012.833216,1628.453072,4589.276840,-75843.454302
1012.835777,3997.112087,-3552.988522,-76456.330700
1012.838339,3108.864956,-148.041188,-74770.920605
1012.840901,5181.441594,-5477.523971,-73698.386908
1012.843462,5625.565159,6069.688724,-74311.263306
1012.846024,740.205942,-1332.370696,-76149.892501
1012.848585,2664.741391,-10214.842000,-75690.235202
1012.851147,2812.782580,-5625.565159,-75383.797003
1012.853708,10066.800811,3552.988522,-74617.701505
1012.856270,2516.700203,-4737.318029,-75383.797003
1012.858833,-444.123565,-10658.965565,-75077.358804
1012.861396,17616.901420,-148.041188,-72472.634111
1012.863959,4885.359217,-1776.494261,-76609.549800
1012.866522,5329.482782,-4293.194464,-75537.016103
1012.869086,7994.224174,-16284.530724,-75383.797003
1012.871649,15988.448347,14952.160028,-71400.100414
1012.874212,-2072.576638,8734.430116,-74617.701505
1012.876775,-27979.784608,5033.400406,-78754.617194
1012.879338,3701.029710,3997.112087,-75383.797003
1012.881901,-9918.759623,14508.036463,-74924.139704
1012.884465,-888.247130,8438.347739,-74617.701505
1012.887028,3256.906145,11399.171507,-74004.825107
1012.889591,8734.430116,-740.205942,-75843.454302
1012.892154,-3404.947333,4885.359217,-75230.577904
1012.894717,19985.560434,10807.006753,-72779.072310
1012.897281,-8438.347739,3552.988522,-77835.302597
1012.899844,-15100.201217,0.000000,-77835.302597
1012.902407,-2960.823768,5773.606348,-76149.892501
1012.904970,3701.029710,8586.388927,-77069.207099
1012.907533,-2664.741391,-9030.512492,-75383.797003
1012.910097,-2664.741391,-4885.359217,-74004.825107
1012.912660,12583.501014,13915.871710,-72472.634111
1012.915223,3997.112087,9622.677246,-75690.235202
1012.917786,-7254.018232,2072.576638,-77528.864398
1012.920349,-10658.965565,3997.112087,-76609.549800
1012.922913,888.247130,7846.182985,-75383.797003
1012.925476,-14804.118840,-3849.070898,-75996.673402
1012.928039,3552.988522,5033.400406,-73085.510509
1012.930602,16580.613101,11991.336260,-73238.729609
1012.933165,-7105.977043,-1924.535449,-77222.426198
1012.935729,11991.336260,-148.041188,-75077.358804
1012.938292,2072.576638,-3108.864956,-74924.139704
1012.940855,-5773.606348,-7402.059420,-75230.577904
1012.943418,13323.706956,-11251.130318,-73698.386908
1012.945981,2516.700203,1036.288319,-75690.235202
1012.948545,12583.501014,740.205942,-77528.864398
1012.951108,-12139.377449,-6069.688724,-77835.302597
1012.953671,20429.683999,-3849.070898,-71859.757712
1012.956234,2960.823768,888.247130,-74617.701505
1012.958797,-3552.988522,-5773.606348,-77375.645298
1012.961362,0.000000,-888.247130,-74924.139704
1012.963927,6217.729913,3997.112087,-75690.235202
1012.966492,-2368.659014,-6365.771101,-76303.111601
1012.969057,5033.400406,-1776.494261,-73545.167808
1012.971621,7105.977043,-10955.047942,-74158.044206
1012.974186,5329.482782,3256.906145,-73698.386908
1012.976751,2368.659014,-2072.576638,-76762.768900
1012.979316,5033.400406,-5477.523971,-75843.454302
1012.981881,740.205942,-10362.883188,-75996.673402
1012.984446,5329.482782,-8438.347739,-74770.920605
1012.987010,2516.700203,4293.194464,-75230.577904
1012.989575,1184.329507,-7105.977043,-77069.207099
1012.992140,3108.864956,-2812.782580,-74311.263306
1012.994705,17468.860231,296.082377,-73851.606007
1012.997270,7254.018232,888.247130,-76303.111601
1012.999835,7550.100608,-14952.160028,-76915.987999
1013.002399,-5329.482782,13175.665768,-73545.167808
1013.004964,8438.347739,14063.912898,-72932.291410
1013.007529,-23834.631332,148.041188,-77528.864398
1013.010094,-17616.901420,1776.494261,-78141.740796
1013.012659,-3849.070898,1480.411884,-76609.549800
1013.015224,13767.830521,6809.894666,-75077.358804
1013.017788,2368.659014,4737.318029,-74617.701505
1013.020353,16432.571912,9178.553681,-73698.386908
1013.022918,-10066.800811,5329.482782,-77222.426198
1013.025483,6957.935855,7254.018232,-74770.920605
1013.028048,2960.823768,-2072.576638,-74924.139704
1013.030612,-11695.253884,-7105.977043,-77069.207099
1013.033177,-8586.388927,-1332.370696,-76456.330700
1013.035742,1036.288319,-888.247130,-75690.235202
1013.038307,-6809.894666,7105.977043,-74004.825107
1013.040872,-1480.411884,10214.842000,-72472.634111
1013.043437,0.000000,14508.036463,-74311.263306
1013.046001,-10214.842000,7254.018232,-76149.892501
1013.048566,-3256.906145,12583.501014,-75537.016103
1013.051131,-7846.182985,5773.606348,-77988.521696
1013.053696,-15544.324782,-1924.535449,-76762.768900
1013.056261,9918.759623,5033.400406,-72319.415011
1013.058826,-2220.617826,3701.029710,-75077.358804
1013.061390,-4737.318029,3256.906145,-75996.673402
1013.063956,17912.983796,3404.947333,-74311.263306
1013.066521,-16580.613101,-5773.606348,-78141.740796
1013.069087,0.000000,1776.494261,-75077.358804
1013.071652,17320.819043,-3256.906145,-72472.634111
1013.074217,4737.318029,3701.029710,-75537.016103
1013.076783,-2960.823768,-6513.812290,-77528.864398
1013.079348,7994.224174,2516.700203,-73085.510509
1013.081914,26499.372724,3108.864956,-72932.291410
1013.084479,-6365.771101,-9474.636058,-77528.864398
1013.087044,-4441.235652,-10510.924376,-76303.111601
1013.089610,9770.718434,-296.082377,-73698.386908
1013.092175,7846.182985,-592.164754,-76149.892501
1013.094741,-5773.606348,-8882.471304,-75230.577904
1013.097306,3701.029710,-2516.700203,-75383.797003
1013.099871,1776.494261,-3701.029710,-75077.358804
1013.102437,-296.082377,-592.164754,-75843.454302
1013.105002,2220.617826,-5921.647536,-75690.235202
1013.107568,3701.029710,2812.782580,-76303.111601
1013.110133,2072.576638,2516.700203,-75843.454302
1013.112698,4737.318029,-3701.029710,-74617.701505
1013.115264,4737.318029,1480.411884,-74924.139704
1013.117829,15988.448347,-7698.141797,-75690.235202
1013.120395,444.123565,-4145.153275,-75383.797003
1013.122960,19245.354492,-2812.782580,-73085.510509
1013.125525,11695.253884,3849.070898,-74770.920605
1013.128091,7698.141797,-11991.336260,-78448.178995
1013.130656,-22650.301825,9326.594869,-75843.454302
1013.133222,3997.112087,16580.613101,-72932.291410
1013.135787,1036.288319,9474.636058,-74311.263306
1013.138352,-13619.789333,5181.441594,-76303.111601
1013.140918,-5625.565159,-5329.482782,-77069.207099
1013.143483,4737.318029,1480.411884,-76609.549800
1013.146049,888.247130,5329.482782,-74311.263306
1013.148614,13471.748144,12731.542202,-72932.291410
1013.151179,-9770.718434,6957.935855,-77375.645298
1013.153745,148.041188,6661.853478,-74617.701505
1013.156310,-2812.782580,3701.029710,-74617.701505
1013.158876,-10658.965565,-592.164754,-78141.740796
1013.161441,-8586.388927,-4885.359217,-76915.987999
1013.164006,13619.789333,1776.494261,-75690.235202
1013.166573,2368.659014,11695.253884,-73391.948708
1013.169139,444.123565,-5773.606348,-74004.825107
1013.171705,-5921.647536,4885.359217,-74617.701505
1013.174271,1036.288319,8734.430116,-77528.864398
1013.176837,-24722.878463,-740.205942,-78448.178995
1013.179403,6513.812290,-1184.329507,-74924.139704
1013.181969,2072.576638,7254.018232,-74311.263306
1013.184536,-1776.494261,3552.988522,-75077.358804
1013.187102,2516.700203,14211.954086,-74464.482406
1013.189668,1184.329507,740.205942,-76609.549800
1013.192234,3849.070898,4441.235652,-75077.358804
1013.194800,13027.624579,4589.276840,-73545.167808
1013.197366,-4293.194464,-6809.894666,-76915.987999
1013.199933,-4589.276840,-9030.512492,-76915.987999
1013.202499,7105.977043,-592.164754,-72625.853210
1013.205065,20873.807564,12583.501014,-73851.606007
1013.207631,-9622.677246,-7846.182985,-79673.931792
1013.210197,8438.347739,-7402.059420,-74004.825107
1013.212763,17172.777854,-6365.771101,-72932.291410
1013.215330,4145.153275,4145.153275,-75690.235202
1013.217896,-5625.565159,-5329.482782,-77375.645298
1013.220462,4441.235652,2368.659014,-74924.139704
1013.223028,12435.459826,7846.182985,-73851.606007
1013.225594,-1036.288319,-148.041188,-76456.330700
1013.228160,-1184.329507,-7254.018232,-74617.701505
1013.230727,888.247130,-3552.988522,-75843.454302
1013.233293,3404.947333,-4145.153275,-75230.577904
1013.235859,6217.729913,444.123565,-74464.482406
1013.238425,7402.059420,-6809.894666,-74770.920605
1013.240991,7846.182985,-1332.370696,-74004.825107
1013.243557,10658.965565,-10955.047942,-76303.111601
1013.246123,4737.318029,-888.247130,-74617.701505
1013.248690,15692.365970,-1628.453072,-74770.920605
1013.251256,8142.265362,4737.318029,-75383.797003
1013.253822,13471.748144,-7994.224174,-77069.207099
1013.256388,-29164.114115,6809.894666,-78294.959896
1013.258954,9326.594869,14508.036463,-72472.634111
1013.261520,-5921.647536,2220.617826,-75230.577904
1013.264087,-15396.283594,1036.288319,-76762.768900
1013.266653,-11991.336260,-2368.659014,-77375.645298
1013.269219,1332.370696,4145.153275,-76149.892501
1013.271785,4145.153275,10362.883188,-74464.482406
1013.274351,12435.459826,10807.006753,-74311.263306
1013.276917,-6661.853478,4293.194464,-75843.454302
1013.279483,11251.130318,4885.359217,-73545.167808
1013.282049,0.000000,6661.853478,-75077.358804
1013.284615,-13175.665768,-1184.329507,-79673.931792
1013.287181,-20429.683999,-5329.482782,-77222.426198
1013.289747,1924.535449,2516.700203,-77069.207099
1013.292313,-1036.288319,26647.413912,-74464.482406
1013.294879,5625.565159,-1036.288319,-74464.482406
1013.297445,-8438.347739,-5329.482782,-74464.482406
1013.300011,7105.977043,6069.688724,-75690.235202
1013.302577,-12583.501014,9326.594869,-78141.740796
1013.305143,-13619.789333,-6809.894666,-78141.740796
1013.307709,2960.823768,3404.947333,-72779.072310
1013.310275,4145.153275,2664.741391,-72319.415011
1013.312841,-6069.688724,7254.018232,-73545.167808
1013.315408,4885.359217,-2960.823768,-75690.235202
1013.317974,-12731.542202,-11695.253884,-77682.083497
1013.320540,592.164754,-1332.370696,-74311.263306
1013.323106,14359.995275,-2960.823768,-73545.167808
1013.325672,-6513.812290,3552.988522,-76915.987999
1013.328238,-4737.318029,-7254.018232,-75230.577904
1013.330804,18653.189738,12731.542202,-71553.319513
1013.333370,15840.407159,-592.164754,-76762.768900
1013.335936,-12879.583391,-12731.542202,-79980.369991
1013.338502,7550.100608,-12435.459826,-74311.263306
1013.341068,13767.830521,11103.089130,-73085.510509
1013.343634,-592.164754,-4885.359217,-77069.207099
1013.346200,-12583.501014,-7846.182985,-76762.768900
1013.348766,3108.864956,-5329.482782,-74311.263306
1013.351332,8882.471304,8882.471304,-74924.139704
1013.353898,7550.100608,4441.235652,-74924.139704
1013.356464,888.247130,-16580.613101,-76149.892501
1013.359030,-740.205942,-8734.430116,-75996.673402
1013.361596,5181.441594,-148.041188,-75537.016103
1013.364162,6513.812290,1332.370696,-76303.111601
1013.366728,-2812.782580,-17764.942608,-77222.426198
1013.369294,19689.478057,-1332.370696,-74924.139704
1013.371860,12139.377449,740.205942,-75843.454302
1013.374426,-2664.741391,-4441.235652,-77988.521696
1013.376992,11695.253884,-13323.706956,-76762.768900
1013.379558,18061.024985,18209.066173,-74464.482406
1013.382124,10658.965565,15248.242405,-72472.634111
1013.384691,-16876.695478,148.041188,-75843.454302
1013.387257,-4145.153275,-7550.100608,-75843.454302
1013.389823,-14211.954086,2072.576638,-75230.577904
1013.392389,1036.288319,7402.059420,-75996.673402
1013.394955,1184.329507,9622.677246,-74311.263306
1013.397521,0.000000,296.082377,-74311.263306
1013.400088,5477.523971,3108.864956,-71246.881314
1013.402654,16728.654289,8882.471304,-72012.976812
1013.405220,-10955.047942,-1776.494261,-77835.302597
1013.407786,-19837.519246,-6069.688724,-77682.083497
1013.410352,-5477.523971,8438.347739,-75077.358804
1013.412918,16432.571912,13471.748144,-73851.606007
1013.415485,2220.617826,21317.931130,-73391.948708
1013.418051,-7994.224174,-4293.194464,-75537.016103
1013.420617,-10362.883188,-2220.617826,-74617.701505
1013.423183,3997.112087,13619.789333,-75077.358804
1013.425749,-5329.482782,13915.871710,-78141.740796
1013.428315,-25463.084405,-10214.842000,-80286.808190
1013.430882,4293.194464,4737.318029,-73085.510509
1013.433448,-1480.411884,3701.029710,-74004.825107
1013.436014,-6513.812290,6809.894666,-74924.139704
1013.438580,6809.894666,-2664.741391,-75996.673402
1013.441146,-5625.565159,-1924.535449,-76762.768900
1013.443712,5033.400406,-6069.688724,-75077.358804
1013.446279,15840.407159,-4441.235652,-74311.263306
1013.448845,-6217.729913,-2960.823768,-77682.083497
1013.451411,-4145.153275,-5921.647536,-74924.139704
1013.453977,11103.089130,9030.512492,-72012.976812
1013.456543,12583.501014,1628.453072,-76456.330700
1013.459109,-13027.624579,-10807.006753,-80286.808190
1013.461676,6661.853478,-8586.388927,-74924.139704
1013.464242,10510.924376,4293.194464,-72779.072310
1013.466808,6365.771101,6513.812290,-74004.825107
1013.469374,296.082377,-2664.741391,-76303.111601
1013.471940,-148.041188,-6661.853478,-75690.235202
1013.474507,-2664.741391,-5773.606348,-77069.207099
1013.477073,6069.688724,5329.482782,-75230.577904
1013.479640,4293.194464,-5773.606348,-75077.358804
1013.482206,1924.535449,-12583.501014,-74770.920605
1013.484773,5181.441594,-9178.553681,-74311.263306
1013.487339,8882.471304,8734.430116,-73698.386908
1013.489906,15248.242405,-5181.441594,-77375.645298
1013.492472,-7846.182985,-1332.370696,-77528.864398
1013.495039,14952.160028,-1332.370696,-74158.044206
1013.497606,9030.512492,1628.453072,-73391.948708
1013.500172,15100.201217,-6809.894666,-75690.235202
1013.502739,-22502.260637,6809.894666,-76915.987999
1013.505305,444.123565,15544.324782,-74158.044206
1013.507872,-592.164754,5329.482782,-75230.577904
1013.510438,-15248.242405,6957.935855,-76609.549800
1013.513005,-7846.182985,-5773.606348,-77222.426198
1013.515571,2960.823768,0.000000,-75230.577904
1013.518138,2368.659014,10658.965565,-73851.606007
1013.520704,7402.059420,9178.553681,-74770.920605
1013.523271,-3849.070898,1628.453072,-76609.549800
1013.525837,12879.583391,7402.059420,-72932.291410
1013.528404,-5181.441594,-4885.359217,-75077.358804
1013.530970,-3404.947333,8586.388927,-75383.797003
1013.533537,-13471.748144,-4589.276840,-77222.426198
1013.536103,-888.247130,-7550.100608,-75077.358804
1013.538670,-4885.359217,5773.606348,-73851.606007
1013.541237,14952.160028,12583.501014,-72166.195912
1013.543803,4441.235652,19689.478057,-74924.139704
1013.546370,-18357.107362,8438.347739,-77835.302597
1013.548936,-16876.695478,-2960.823768,-77835.302597
1013.551503,7994.224174,2072.576638,-75383.797003
1013.554069,-1924.535449,1776.494261,-75537.016103
1013.556636,3701.029710,11991.336260,-74464.482406
1013.559202,3849.070898,1480.411884,-75230.577904
1013.561769,-444.123565,2220.617826,-75230.577904
1013.564335,11843.295072,0.000000,-75383.797003
1013.566902,6809.894666,-5625.565159,-76762.768900
1013.569468,-3997.112087,-7550.100608,-77375.645298
1013.572035,7550.100608,-1480.411884,-72932.291410
1013.574601,19837.519246,10807.006753,-71859.757712
1013.577168,-4885.359217,-5329.482782,-78141.740796
1013.579734,-4737.318029,-8438.347739,-77375.645298
1013.582300,15248.242405,-4885.359217,-72932.291410
1013.584866,7105.977043,2664.741391,-76149.892501
1013.587433,-3701.029710,-1184.329507,-75843.454302
1013.589999,2664.741391,-444.123565,-75383.797003
1013.592565,-740.205942,0.000000,-74770.920605
1013.595131,11547.212695,11547.212695,-73698.386908
1013.597698,2664.741391,5477.523971,-76609.549800
1013.600264,2220.617826,-6661.853478,-76149.892501
1013.602830,-444.123565,-13175.665768,-75077.358804
1013.605396,5773.606348,-4441.235652,-73238.729609
1013.607963,3849.070898,3256.906145,-73238.729609
1013.610529,13619.789333,-148.041188,-75690.235202
1013.613095,-1332.370696,148.041188,-78141.740796
1013.615662,11251.130318,-5329.482782,-74924.139704
1013.618228,11695.253884,-8142.265362,-73698.386908
1013.620794,19097.313304,-3404.947333,-74770.920605
1013.623360,-27091.537477,5477.523971,-76915.987999
1013.625927,6217.729913,15692.365970,-72012.976812
1013.628493,-148.041188,9770.718434,-76303.111601
1013.631059,-16728.654289,6957.935855,-77375.645298
1013.633625,-6069.688724,-6365.771101,-77528.864398
1013.636192,-444.123565,148.041188,-75690.235202
1013.638758,3552.988522,10066.800811,-74617.701505
1013.641324,7698.141797,9030.512492,-73698.386908
1013.643890,-3552.988522,3701.029710,-76303.111601
1013.646457,9178.553681,5773.606348,-75077.358804
1013.649023,-5329.482782,3404.947333,-76915.987999
1013.651589,-17468.860231,-1036.288319,-78141.740796
1013.654155,-148.041188,-15100.201217,-75230.577904
1013.656722,7846.182985,5921.647536,-74004.825107
1013.659288,3108.864956,11251.130318,-73085.510509
1013.661854,11251.130318,6513.812290,-75077.358804
1013.664420,-20577.725188,-2220.617826,-76915.987999
1013.666987,740.205942,1036.288319,-75230.577904
1013.669553,-5921.647536,8586.388927,-77528.864398
1013.672119,-6365.771101,5181.441594,-77069.207099
1013.674685,-2368.659014,6069.688724,-75537.016103
1013.677252,-3256.906145,3849.070898,-73085.510509
1013.679818,25907.207970,6957.935855,-72012.976812
1013.682384,-8142.265362,-11991.336260,-78907.836294
1013.684951,-2072.576638,-11695.253884,-77069.207099
1013.687517,21910.095883,-7698.141797,-73085.510509
1013.690084,16580.613101,6365.771101,-72166.195912
1013.692650,-6809.894666,-6809.894666,-77528.864398
1013.695216,-14508.036463,-1184.329507,-75537.016103
1013.697783,23242.466579,-740.205942,-72625.853210
1013.700349,-444.123565,-740.205942,-77375.645298
1013.702915,-3552.988522,-10214.842000,-78141.740796
1013.705482,5773.606348,-4441.235652,-73391.948708
1013.708048,10955.047942,2368.659014,-72166.195912
1013.710615,1184.329507,888.247130,-72779.072310
1013.713181,-888.247130,-10807.006753,-75537.016103
1013.715747,2516.700203,-5181.441594,-76149.892501
1013.718314,3404.947333,-1628.453072,-76915.987999
1013.720880,6661.853478,-3404.947333,-75230.577904
1013.723446,4737.318029,-3404.947333,-74004.825107
1013.726013,3849.070898,2220.617826,-73085.510509
1013.728579,-148.041188,-2664.741391,-75843.454302
1013.731146,2516.700203,-2664.741391,-76456.330700
1013.733712,9474.636058,-2664.741391,-77375.645298
1013.736278,10955.047942,-3256.906145,-76456.330700
1013.738845,17024.736666,148.041188,-75690.235202
1013.741411,-5329.482782,9178.553681,-74770.920605
1013.743977,14508.036463,13619.789333,-71400.100414
1013.746544,-6365.771101,296.082377,-75383.797003
1013.749110,-11991.336260,0.000000,-77375.645298
1013.751677,-7105.977043,-3997.112087,-78754.617194
1013.754243,-8586.388927,444.123565,-76609.549800
1013.756809,2368.659014,4589.276840,-75230.577904
1013.759376,2368.659014,6069.688724,-73698.386908
1013.761942,1036.288319,-2072.576638,-74004.825107
1013.764508,15840.407159,5329.482782,-74770.920605
1013.767075,-740.205942,2812.782580,-79367.493593
1013.769641,-18653.189738,-1776.494261,-78294.959896
1013.772208,-11399.171507,-7105.977043,-75230.577904
1013.774774,18801.230927,14952.160028,-72012.976812
1013.777340,2664.741391,17468.860231,-73391.948708
1013.779907,-5477.523971,-4885.359217,-76149.892501
1013.782444,-20281.642811,-3404.947333,-77682.083497
1013.784981,-4589.276840,-5329.482782,-75230.577904
1013.787518,6217.729913,8142.265362,-74311.263306
1013.790055,-4589.276840,1332.370696,-76303.111601
1013.792593,-5921.647536,3256.906145,-77222.426198
1013.795130,-11695.253884,296.082377,-74924.139704
1013.797667,20873.807564,11399.171507,-71859.757712
1013.800204,-7105.977043,-1776.494261,-77528.864398
1013.802741,-2368.659014,-13471.748144,-78448.178995
1013.805278,21021.848753,-7846.182985,-73545.167808
1013.807816,8586.388927,6217.729913,-74617.701505
1013.810353,-9474.636058,-3701.029710,-77069.207099
1013.812890,-17024.736666,-2812.782580,-76456.330700
1013.815427,17172.777854,-4293.194464,-72779.072310
1013.817964,6957.935855,-444.123565,-76762.768900
1013.820501,-3849.070898,-10510.924376,-79980.369991
1013.823039,5921.647536,-1924.535449,-74004.825107
1013.825576,21614.013506,15692.365970,-70787.224015
1013.828113,4589.276840,7105.977043,-75537.016103
1013.830650,-11991.336260,-23390.507767,-77375.645298
1013.833187,10066.800811,-4589.276840,-75077.358804
1013.835724,12139.377449,21169.889941,-75537.016103
1013.838262,3108.864956,-7994.224174,-77835.302597
1013.840799,-148.041188,-34049.473332,-75383.797003
1013.843336,-3108.864956,-33161.226202,-73545.167808
1013.845873,11695.253884,-2368.659014,-72319.415011
1013.848410,9178.553681,7846.182985,-77069.207099
1013.850948,-592.164754,-11991.336260,-80440.027290
1013.853485,7994.224174,-16876.695478,-74311.263306
1013.856022,31680.814318,5921.647536,-69867.909418
1013.858559,-2368.659014,2812.782580,-75230.577904
1013.861096,-19689.478057,6217.729913,-76149.892501
1013.863633,888.247130,11991.336260,-74464.482406
1013.866171,-20725.766376,13619.789333,-77069.207099
1013.868708,-8438.347739,148.041188,-78294.959896
1013.871245,-13471.748144,-5477.523971,-77069.207099
1013.873782,-1184.329507,7698.141797,-73545.167808
1013.876319,10362.883188,10510.924376,-72472.634111
1013.878856,592.164754,-1628.453072,-74158.044206
1013.881394,8290.306550,-2960.823768,-75690.235202
1013.883936,-6365.771101,1776.494261,-77222.426198
1013.886479,8438.347739,13323.706956,-74311.263306
1013.889021,1332.370696,4885.359217,-77375.645298
1013.891564,-3552.988522,-2664.741391,-74464.482406
1013.894106,-15692.365970,2664.741391,-74617.701505
1013.896649,-1184.329507,14952.160028,-72932.291410
1013.899191,15544.324782,13915.871710,-74004.825107
1013.901734,-15988.448347,-3256.906145,-79214.274493
1013.904277,-16876.695478,1184.329507,-78294.959896
1013.906819,0.000000,5181.441594,-75077.358804
1013.909362,-2072.576638,7550.100608,-72012.976812
1013.911904,17764.942608,4293.194464,-71553.319513
1013.914447,-9622.677246,-10362.883188,-77835.302597
1013.916989,10807.006753,-7402.059420,-75843.454302
1013.919532,17764.942608,-9474.636058,-74924.139704
1013.922074,-1776.494261,-2812.782580,-76609.549800
1013.924617,-6513.812290,-2960.823768,-74924.139704
1013.927159,16728.654289,11547.212695,-71093.662214
1013.929702,1184.329507,5329.482782,-75843.454302
1013.932244,-5477.523971,-8586.388927,-79367.493593
1013.934787,-4589.276840,-12583.501014,-79673.931792
1013.937330,12435.459826,-2516.700203,-73238.729609
1013.939872,18061.024985,6365.771101,-71706.538613
1013.942415,3849.070898,-2812.782580,-74464.482406
1013.944957,-15248.242405,-17172.777854,-77528.864398
1013.947500,-592.164754,888.247130,-76609.549800
1013.950042,3404.947333,8290.306550,-77375.645298
1013.952585,3849.070898,-6661.853478,-77528.864398
1013.955127,2664.741391,-13323.706956,-75843.454302
1013.957670,-1924.535449,-6809.894666,-72932.291410
1013.960212,8438.347739,11399.171507,-72779.072310
1013.962755,-740.205942,2812.782580,-77222.426198
1013.965302,8734.430116,-8142.265362,-79061.055394
1013.967849,10362.883188,-15396.283594,-75383.797003
1013.970396,28571.949361,740.205942,-70480.785816
1013.972943,2664.741391,4145.153275,-74004.825107
1013.975489,-21465.972318,6217.729913,-75843.454302
1013.978036,-4441.235652,9918.759623,-74770.920605
1013.980583,-22502.260637,6217.729913,-77682.083497
1013.983130,-3849.070898,-2960.823768,-76762.768900
1013.985677,-3404.947333,-4293.194464,-75996.673402
1013.988224,-1036.288319,10066.800811,-73851.606007
1013.990771,1184.329507,6513.812290,-72779.072310
1013.993318,-5921.647536,-3256.906145,-74004.825107
1013.995864,11843.295072,2516.700203,-76456.330700
1013.998411,-9474.636058,4737.318029,-78754.617194
1014.000958,-4293.194464,10362.883188,-77375.645298
1014.003505,2516.700203,-740.205942,-76456.330700
1014.006052,-888.247130,-1036.288319,-73238.729609
1014.008599,-3701.029710,15692.365970,-72472.634111
1014.011146,-1924.535449,6661.853478,-75537.016103
1014.013693,-10807.006753,-1628.453072,-77528.864398
1014.016240,3108.864956,1628.453072,-76762.768900
1014.018786,-3108.864956,4885.359217,-76762.768900
1014.021333,-1332.370696,3997.112087,-75690.235202
1014.023880,-14063.912898,-888.247130,-74004.825107
1014.026427,7105.977043,6217.729913,-73238.729609
1014.028974,22946.384202,4737.318029,-74464.482406
1014.031521,-592.164754,-15396.283594,-80286.808190
1014.034068,10510.924376,-23094.425390,-77222.426198
1014.036615,13323.706956,2368.659014,-72012.976812
1014.039161,-1480.411884,-2812.782580,-75690.235202
1014.041708,-13471.748144,1036.288319,-75843.454302
1014.044255,13175.665768,-6069.688724,-74770.920605
1014.046802,-740.205942,-5625.565159,-77835.302597
1014.049349,2220.617826,-12435.459826,-77528.864398
1014.051896,5329.482782,4293.194464,-74464.482406
1014.054443,5181.441594,-888.247130,-73391.948708
1014.056990,-6069.688724,-3701.029710,-73851.606007
1014.059537,1776.494261,-8586.388927,-75383.797003
1014.062083,6513.812290,-1184.329507,-76609.549800
1014.064630,4145.153275,-3404.947333,-77069.207099
1014.067181,3108.864956,-8290.306550,-75843.454302
1014.069731,3404.947333,-888.247130,-72319.415011
1014.072281,6365.771101,296.082377,-72166.195912
1014.074831,148.041188,-2368.659014,-74617.701505
1014.077382,5329.482782,-2368.659014,-77069.207099
1014.079932,17320.819043,148.041188,-77375.645298
1014.082482,16136.489536,3997.112087,-76915.987999
1014.085033,-148.041188,15840.407159,-75077.358804
1014.087583,-2072.576638,17024.736666,-73238.729609
1014.090133,-3552.988522,7550.100608,-74464.482406
1014.092684,-16728.654289,5773.606348,-77069.207099
1014.095234,-4441.235652,-1332.370696,-77835.302597
1014.097784,-6513.812290,1036.288319,-78141.740796
1014.100334,-1628.453072,1924.535449,-76149.892501
1014.102885,-7994.224174,3701.029710,-73851.606007
1014.105435,8586.388927,9474.636058,-71246.881314
1014.107985,11843.295072,11843.295072,-74924.139704
1014.110536,-7254.018232,-10510.924376,-80133.589091
1014.113086,-20577.725188,-9326.594869,-76762.768900
1014.115636,27831.743419,14508.036463,-70787.224015
1014.118187,22058.137072,16284.530724,-69867.909418
1014.120737,16728.654289,30940.608376,-69408.252119
1014.123287,-15544.324782,-3849.070898,-77375.645298
1014.125837,-30348.443622,-8586.388927,-77988.521696
1014.128388,19689.478057,6217.729913,-75230.577904
1014.130938,-8142.265362,21169.889941,-77375.645298
1014.133488,-11103.089130,-1036.288319,-79214.274493
1014.136039,-11843.295072,5921.647536,-71859.757712
1014.138589,38194.626607,6809.894666,-68182.499322
1014.141139,-17172.777854,-4885.359217,-78754.617194
1014.143690,-592.164754,-15396.283594,-80286.808190
1014.146240,21762.054695,-7402.059420,-74617.701505
1014.148790,18801.230927,4145.153275,-71093.662214
1014.151340,-6513.812290,-2220.617826,-75537.016103
1014.153891,-9918.759623,6069.688724,-74617.701505
1014.156441,9622.677246,-5033.400406,-75077.358804
1014.158991,1480.411884,-3404.947333,-76915.987999
1014.161542,1776.494261,-15840.407159,-78294.959896
1014.164092,16136.489536,2812.782580,-73545.167808
1014.166642,9622.677246,3849.070898,-72932.291410
1014.169196,-10362.883188,-2664.741391,-73851.606007
1014.171749,-6957.935855,-4441.235652,-75690.235202
1014.174303,5033.400406,10214.842000,-77375.645298
1014.176857,4293.194464,-5921.647536,-78141.740796
1014.179410,5477.523971,-1480.411884,-76303.111601
1014.181964,-740.205942,-11843.295072,-72319.415011
1014.184518,8438.347739,5773.606348,-71553.319513
1014.187071,-2072.576638,6809.894666,-75383.797003
1014.189625,9178.553681,-13471.748144,-78907.836294
1014.192178,9474.636058,-16580.613101,-76303.111601
1014.194732,30644.525999,3108.864956,-74158.044206
1014.197286,-17024.736666,7402.059420,-76456.330700
1014.199839,2664.741391,15248.242405,-72166.195912
1014.202393,-2072.576638,9770.718434,-72012.976812
1014.204947,-11399.171507,6365.771101,-75537.016103
1014.207500,-8734.430116,-1332.370696,-79214.274493
1014.210054,-6513.812290,-296.082377,-78754.617194
1014.212607,-1628.453072,888.247130,-75383.797003
1014.215161,-8290.306550,2664.741391,-72166.195912
1014.217715,5033.400406,1332.370696,-71400.100414
1014.220268,5477.523971,-1332.370696,-75230.577904
1014.222822,148.041188,2368.659014,-77528.864398
1014.225376,-4885.359217,592.164754,-77988.521696
1014.227929,1776.494261,11547.212695,-75690.235202
1014.230483,4737.318029,-1332.370696,-74158.044206
1014.233036,-15248.242405,8290.306550,-70940.443115
1014.235590,4145.153275,12731.542202,-73545.167808
1014.238144,-6069.688724,3849.070898,-76762.768900
1014.240697,-8438.347739,2072.576638,-79673.931792
1014.243251,-11251.130318,1628.453072,-77682.083497
1014.245804,10658.965565,17616.901420,-71246.881314
1014.248358,-2812.782580,740.205942,-74617.701505
1014.250912,-12435.459826,2664.741391,-75537.016103
1014.253465,17616.901420,-3849.070898,-74311.263306
1014.256019,11251.130318,-7254.018232,-77835.302597
1014.258573,2368.659014,-18061.024985,-78448.178995
1014.261126,3701.029710,4885.359217,-72779.072310
1014.263680,6957.935855,2812.782580,-73085.510509
1014.266233,-15840.407159,2664.741391,-75077.358804
1014.268787,8142.265362,-8142.265362,-74464.482406
1014.271343,2220.617826,-4737.318029,-77375.645298
1014.273898,7105.977043,3404.947333,-76609.549800
1014.276454,7846.182985,2960.823768,-75077.358804
1014.279010,-4737.318029,2812.782580,-71859.757712
1014.281565,1036.288319,2220.617826,-72625.853210
1014.284121,5033.400406,-8290.306550,-75996.673402
1014.286676,5625.565159,-10066.800811,-77528.864398
1014.289232,5625.565159,-7105.977043,-78448.178995
1014.291788,4737.318029,-1184.329507,-74617.701505
1014.294343,3997.112087,-3256.906145,-72932.291410
1014.296899,-444.123565,-6809.894666,-73238.729609
1014.299455,740.205942,2072.576638,-75077.358804
1014.302010,18357.107362,-6957.935855,-77682.083497
1014.304566,18357.107362,3108.864956,-79061.055394
1014.307121,-888.247130,18653.189738,-75843.454302
1014.309677,16284.530724,16580.613101,-69867.909418
1014.312233,-4145.153275,1924.535449,-70480.785816
1014.314788,-11103.089130,-3256.906145,-76149.892501
1014.317344,-16580.613101,-4589.276840,-80899.684589
1014.319899,-14952.160028,-592.164754,-80133.589091
1014.322455,3701.029710,5625.565159,-76915.987999
1014.325011,3108.864956,24870.919651,-71246.881314
1014.327566,8438.347739,12287.418637,-70174.347617
1014.330122,-8438.347739,-13471.748144,-74770.920605
1014.332678,-5625.565159,-10066.800811,-79214.274493
1014.335233,10214.842000,8882.471304,-76303.111601
1014.337789,9474.636058,12879.583391,-77988.521696
1014.340344,3552.988522,3997.112087,-75383.797003
1014.342900,-21762.054695,-4589.276840,-72166.195912
1014.345456,-1924.535449,9918.759623,-70327.566716
1014.348011,12879.583391,10066.800811,-74158.044206
1014.350567,-11991.336260,-2368.659014,-80899.684589
1014.353123,-13915.871710,-3997.112087,-78907.836294
1014.355678,17616.901420,17172.777854,-72472.634111
1014.358234,-12139.377449,1184.329507,-75690.235202
1014.360789,-15100.201217,1776.494261,-73851.606007
1014.363345,17764.942608,-3404.947333,-76609.549800
1014.365901,19985.560434,-3108.864956,-76762.768900
1014.368456,10658.965565,-7105.977043,-79520.712692
1014.371012,-3997.112087,-1184.329507,-75230.577904
1014.373569,16580.613101,5921.647536,-70480.785816
1014.376126,-11695.253884,-740.205942,-72625.853210
1014.378684,14656.077652,-5773.606348,-74158.044206
1014.381242,-592.164754,-10807.006753,-79673.931792
1014.383800,7402.059420,-6365.771101,-79061.055394
1014.386357,9030.512492,148.041188,-73545.167808
1014.388915,7698.141797,8290.306550,-70940.443115
1014.391473,-12731.542202,-4145.153275,-72932.291410
1014.394030,5181.441594,-7254.018232,-76762.768900
1014.396588,2072.576638,-3108.864956,-79520.712692
1014.399146,6957.935855,-3552.988522,-78294.959896
1014.401704,6365.771101,-7846.182985,-74158.044206
1014.404261,8734.430116,3849.070898,-71246.881314
1014.406819,-2812.782580,888.247130,-73085.510509
1014.409377,-444.123565,-7254.018232,-76456.330700
1014.411935,12287.418637,-11991.336260,-78141.740796
1014.414492,24426.796086,3404.947333,-77682.083497
1014.417050,-6957.935855,12583.501014,-78141.740796
1014.419608,8734.430116,15248.242405,-71400.100414
1014.422165,-2664.741391,5329.482782,-70174.347617
1014.424723,-15248.242405,8882.471304,-75230.577904
1014.427281,-5181.441594,-2960.823768,-79367.493593
1014.429839,-3404.947333,-1628.453072,-79673.931792
1014.432396,4145.153275,148.041188,-77375.645298
1014.434954,-4885.359217,14211.954086,-72012.976812
1014.437512,11991.336260,14508.036463,-69408.252119
1014.440070,0.000000,6957.935855,-73391.948708
1014.442627,5773.606348,-2664.741391,-77375.645298
1014.445185,-6809.894666,10214.842000,-80440.027290
1014.447743,740.205942,-1184.329507,-79827.150892
1014.450300,4145.153275,10807.006753,-73698.386908
1014.452858,-11695.253884,12583.501014,-70940.443115
1014.455416,-8290.306550,2960.823768,-72779.072310
1014.457974,-2516.700203,-1332.370696,-76456.330700
1014.460531,-2220.617826,6069.688724,-79673.931792
1014.463089,-592.164754,4589.276840,-79367.493593
1014.465647,-12731.542202,4293.194464,-74464.482406
1014.468204,21465.972318,5921.647536,-66956.746525
1014.470762,-8882.471304,-2664.741391,-73238.729609
1014.473320,-2368.659014,-9770.718434,-77988.521696
1014.475880,18505.148550,-11399.171507,-78754.617194
1014.478439,11103.089130,-2664.741391,-77988.521696
1014.480999,-3108.864956,3552.988522,-74617.701505
1014.483559,13471.748144,11843.295072,-69714.690318
1014.486118,-4737.318029,-12139.377449,-72932.291410
1014.488678,-5477.523971,-5625.565159,-77988.521696
1014.491238,10955.047942,-9474.636058,-78601.398095
1014.493797,13767.830521,-2960.823768,-77375.645298
1014.496357,9770.718434,3701.029710,-73238.729609
1014.498916,-6661.853478,3701.029710,-72472.634111
1014.501476,-7105.977043,-16580.613101,-74464.482406
1014.504036,6661.853478,-1628.453072,-76149.892501
1014.506595,9326.594869,592.164754,-80286.808190
1014.509155,7402.059420,2664.741391,-78141.740796
1014.511715,8142.265362,-10510.924376,-75383.797003
1014.514274,6513.812290,-11547.212695,-70480.785816
1014.516834,4293.194464,-8438.347739,-72166.195912
1014.519394,22650.301825,-5477.523971,-75690.235202
1014.521953,14804.118840,-8882.471304,-82125.437386
1014.524513,3108.864956,13175.665768,-77069.207099
1014.527073,24278.754898,22354.219448,-70327.566716
1014.529632,-20133.601622,5625.565159,-71859.757712
1014.532192,-23538.548956,-5921.647536,-75077.358804
1014.534752,-7105.977043,4737.318029,-75383.797003
1014.537311,1036.288319,5477.523971,-79214.274493
1014.539871,3701.029710,6661.853478,-79367.493593
1014.542431,2072.576638,5921.647536,-74617.701505
1014.544990,-4737.318029,10362.883188,-69867.909418
1014.547550,-740.205942,-5625.565159,-71246.881314
1014.550109,4441.235652,-888.247130,-74770.920605
1014.552669,-148.041188,3552.988522,-80133.589091
1014.555229,-888.247130,-4293.194464,-80593.246390
1014.557788,2812.782580,4145.153275,-74770.920605
1014.560348,-3849.070898,25167.002028,-68948.594820
1014.562908,-3404.947333,7254.018232,-71859.757712
1014.565467,-13767.830521,-444.123565,-75077.358804
1014.568027,4441.235652,3552.988522,-77988.521696
1014.570587,-4589.276840,-592.164754,-81052.903688
1014.573146,-4589.276840,1332.370696,-77069.207099
1014.575706,12287.418637,5033.400406,-69255.033019
1014.578267,592.164754,592.164754,-69561.471218
1014.580827,3404.947333,-8882.471304,-75690.235202
1014.583388,15100.201217,-17172.777854,-79980.369991
1014.585949,10955.047942,-5921.647536,-78907.836294
1014.588509,3256.906145,-592.164754,-75077.358804
1014.591070,10807.006753,10658.965565,-70634.004916
1014.593631,-11103.089130,592.164754,-73085.510509
1014.596191,-8586.388927,-4737.318029,-75537.016103
1014.598752,6365.771101,-9030.512492,-77835.302597
1014.601312,11251.130318,-7105.977043,-78601.398095
1014.603873,6365.771101,-2220.617826,-76303.111601
1014.606434,-3701.029710,-7698.141797,-71246.881314
1014.608994,-2516.700203,1924.535449,-70327.566716
1014.611555,3552.988522,-4441.235652,-75996.673402
1014.614116,444.123565,-740.205942,-81206.122788
1014.616676,-444.123565,-6217.729913,-79367.493593
1014.619237,10807.006753,3108.864956,-75077.358804
1014.621798,-1480.411884,4589.276840,-71859.757712
1014.624358,2368.659014,-7994.224174,-71859.757712
1014.626919,12583.501014,-11399.171507,-73698.386908
1014.629480,21910.095883,-444.123565,-79520.712692
1014.632040,-4589.276840,19097.313304,-81052.903688
1014.634601,12731.542202,17024.736666,-73851.606007
1014.637162,-4441.235652,8290.306550,-69408.252119
1014.639722,-17320.819043,8142.265362,-72012.976812
1014.642283,-3552.988522,2220.617826,-76303.111601
1014.644843,-9474.636058,-3552.988522,-81206.122788
1014.647404,1924.535449,-4145.153275,-80133.589091
1014.649965,-1332.370696,16728.654289,-74770.920605
1014.652525,8290.306550,11991.336260,-68642.156621
1014.655086,6217.729913,2368.659014,-69714.690318
1014.657647,6217.729913,-740.205942,-75230.577904
1014.660207,-16432.571912,-2960.823768,-81972.218286
1014.662768,3701.029710,6365.771101,-80899.684589
1014.665329,2960.823768,5921.647536,-75230.577904
1014.667889,-6217.729913,1184.329507,-69101.813920
1014.670450,-2368.659014,5773.606348,-69561.471218
1014.673011,-9622.677246,1628.453072,-76456.330700
1014.675571,-10807.006753,888.247130,-81512.560987
1014.678132,5477.523971,17320.819043,-78601.398095
1014.680693,-3108.864956,1184.329507,-78448.178995
1014.683255,-8882.471304,6069.688724,-71400.100414
1014.685817,15100.201217,2664.741391,-68642.156621
1014.688378,-2072.576638,-9326.594869,-76456.330700
1014.690940,15396.283594,-16728.654289,-79520.712692
1014.693502,15988.448347,5033.400406,-77528.864398
1014.696063,3404.947333,-7402.059420,-77528.864398
1014.698625,-7402.059420,2368.659014,-71553.319513
1014.701186,5033.400406,-8142.265362,-70480.785816
1014.703748,-6217.729913,-8438.347739,-76609.549800
1014.706310,3701.029710,-4737.318029,-80593.246390
1014.708871,1924.535449,-2960.823768,-79367.493593
1014.711433,14508.036463,5181.441594,-72625.853210
1014.713994,2664.741391,-3256.906145,-69408.252119
1014.716556,12435.459826,-10807.006753,-70174.347617
1014.719118,5625.565159,-13027.624579,-75996.673402
1014.721679,5773.606348,1924.535449,-80440.027290
1014.724241,10510.924376,-888.247130,-79367.493593
1014.726802,6661.853478,-8142.265362,-75383.797003
1014.729364,2664.741391,2072.576638,-71093.662214
1014.731926,10214.842000,740.205942,-72625.853210
1014.734487,17172.777854,-3997.112087,-78601.398095
1014.737049,-296.082377,9326.594869,-79367.493593
1014.739610,27535.661042,15988.448347,-74617.701505
1014.742172,-10510.924376,5921.647536,-73851.606007
1014.744734,-15692.365970,-1924.535449,-73545.167808
1014.747295,-31384.731941,148.041188,-75077.358804
1014.749857,-6957.935855,6809.894666,-76149.892501
1014.752418,4589.276840,10066.800811,-79214.274493
1014.754980,8734.430116,9178.553681,-77835.302597
1014.757542,-740.205942,15692.365970,-72472.634111
1014.760103,10066.800811,10955.047942,-69714.690318
1014.762665,-1036.288319,1628.453072,-72932.291410
1014.765227,-6069.688724,5181.441594,-78294.959896
1014.767788,1184.329507,12731.542202,-81818.999186
1014.770350,296.082377,5773.606348,-78141.740796
1014.772911,-9770.718434,4293.194464,-70634.004916
1014.775473,2960.823768,11991.336260,-68488.937521
1014.778035,-6069.688724,2960.823768,-72625.853210
1014.780596,-18061.024985,-1332.370696,-78907.836294
1014.783130,9178.553681,7402.059420,-78601.398095
1014.785663,-6217.729913,3108.864956,-79827.150892
1014.788196,9326.594869,2220.617826,-72472.634111
1014.790730,4293.194464,4885.359217,-68335.718422
1014.793263,-444.123565,-11251.130318,-72779.072310
1014.795796,10807.006753,-13915.871710,-77988.521696
1014.798330,17172.777854,2516.700203,-77682.083497
1014.800863,3849.070898,-6069.688724,-77988.521696
1014.803397,-4441.235652,1628.453072,-73391.948708
1014.805930,2072.576638,-5033.400406,-70787.224015
1014.808463,-9326.594869,-6957.935855,-75077.358804
1014.810997,6513.812290,-740.205942,-77222.426198
1014.813530,16432.571912,592.164754,-79520.712692
1014.816064,2368.659014,-6957.935855,-77069.207099
1014.818597,-1036.288319,1332.370696,-72932.291410
1014.821130,2664.741391,1036.288319,-71246.881314
1014.823664,888.247130,-11399.171507,-74158.044206
1014.826197,-592.164754,-7846.182985,-78601.398095
1014.828730,9326.594869,592.164754,-79367.493593
1014.831264,3997.112087,9030.512492,-76303.111601
1014.833797,3997.112087,3552.988522,-72779.072310
1014.836331,16728.654289,-740.205942,-71553.319513
1014.838864,16284.530724,-7846.182985,-76456.330700
1014.841397,7254.018232,9178.553681,-77222.426198
1014.843931,21021.848753,14952.160028,-76303.111601
1014.846464,-13175.665768,4441.235652,-76303.111601
1014.848998,-11843.295072,0.000000,-73851.606007
1014.851531,-16432.571912,5033.400406,-73391.948708
1014.854064,-16432.571912,-740.205942,-77222.426198
1014.856598,740.205942,1184.329507,-78907.836294
1014.859131,4737.318029,12139.377449,-76609.549800
1014.861664,3256.906145,18653.189738,-71706.538613
1014.864198,17912.983796,8882.471304,-69408.252119
1014.866731,-5773.606348,592.164754,-74004.825107
1014.869265,-14804.118840,-7550.100608,-78601.398095
1014.871798,-5773.606348,444.123565,-79214.274493
1014.874331,15248.242405,22206.178260,-76609.549800
1014.876865,1628.453072,13323.706956,-71400.100414
1014.879398,-17616.901420,-7550.100608,-71553.319513
1014.881932,-1628.453072,1480.411884,-71093.662214
1014.884471,-9178.553681,8882.471304,-76609.549800
1014.887011,592.164754,6513.812290,-77988.521696
1014.889550,9178.553681,1628.453072,-78601.398095
1014.892090,-18061.024985,-1628.453072,-75690.235202
1014.894630,9622.677246,444.123565,-68335.718422
1014.897169,11843.295072,-6809.894666,-72779.072310
1014.899709,4737.318029,-12139.377449,-79367.493593
1014.902249,5921.647536,-3256.906145,-78294.959896
1014.904788,17172.777854,740.205942,-76149.892501
1014.907328,-11695.253884,-5625.565159,-75537.016103
1014.909867,6365.771101,-4885.359217,-70940.443115
1014.912407,-6661.853478,-5921.647536,-74924.139704
1014.914947,2220.617826,-2220.617826,-78907.836294
1014.917486,-1184.329507,-13767.830521,-84270.504780
1014.920026,-11843.295072,-9178.553681,-77069.207099
1014.922566,12583.501014,7550.100608,-70174.347617
1014.925105,11991.336260,3997.112087,-71400.100414
1014.927645,592.164754,-18801.230927,-77375.645298
1014.930184,-2368.659014,-30940.608376,-79061.055394
1014.932724,8734.430116,-6809.894666,-77682.083497
1014.935264,6069.688724,26351.331535,-75383.797003
1014.937803,6365.771101,3849.070898,-75537.016103
1014.940343,-2220.617826,-18653.189738,-72012.976812
1014.942883,36862.255912,-4145.153275,-68642.156621
1014.945422,0.000000,1628.453072,-79367.493593
1014.947962,-21614.013506,1924.535449,-80286.808190
1014.950501,-18061.024985,-740.205942,-77528.864398
1014.953041,-21614.013506,12287.418637,-71859.757712
1014.955581,2072.576638,13619.789333,-71553.319513
1014.958120,-5625.565159,9030.512492,-76762.768900
1014.960660,2072.576638,-4737.318029,-79061.055394
1014.963200,-3701.029710,10955.047942,-77222.426198
1014.965739,888.247130,5773.606348,-72166.195912
1014.968279,7994.224174,-148.041188,-71706.538613
1014.970818,-2516.700203,-592.164754,-74617.701505
1014.973358,-11547.212695,5625.565159,-77988.521696
1014.975898,6661.853478,12139.377449,-79673.931792
1014.978437,-3552.988522,11695.253884,-74158.044206
1014.980977,-4293.194464,2960.823768,-72166.195912
1014.983517,-9326.594869,4589.276840,-72319.415011
1014.986062,-5625.565159,-2072.576638,-74311.263306
1014.988607,5329.482782,14656.077652,-77835.302597
1014.991152,-7994.224174,-3108.864956,-82431.875585
1014.993697,-6513.812290,6661.853478,-75843.454302
1014.996242,24130.713709,5181.441594,-68795.375720
1014.998787,-3108.864956,-9918.759623,-73391.948708
1015.001332,13027.624579,-22650.301825,-75996.673402
1015.003877,17912.983796,5477.523971,-75230.577904
1015.006422,4589.276840,-148.041188,-79061.055394
1015.008967,-12879.583391,-148.041188,-76303.111601
1015.011512,5329.482782,-4441.235652,-72932.291410
1015.014057,-8290.306550,-2072.576638,-73851.606007
1015.016602,5181.441594,-7846.182985,-76149.892501
1015.019147,16580.613101,3552.988522,-76149.892501
1015.021692,7550.100608,11103.089130,-78141.740796
1015.024237,-8142.265362,-10658.965565,-76456.330700
1015.026782,2960.823768,-9474.636058,-72779.072310
1015.029327,5033.400406,6069.688724,-74158.044206
1015.031872,1036.288319,-13471.748144,-76762.768900
1015.034417,12287.418637,-19985.560434,-77835.302597
1015.036962,888.247130,2072.576638,-74924.139704
1015.039507,14952.160028,-3404.947333,-73698.386908
1015.042052,2664.741391,-17468.860231,-74464.482406
1015.044597,15544.324782,592.164754,-71706.538613
1015.047142,2960.823768,3108.864956,-76609.549800
1015.049687,-9178.553681,14359.995275,-77682.083497
1015.052232,-5329.482782,6661.853478,-76149.892501
1015.054777,-21317.931130,11843.295072,-74924.139704
1015.057322,-13175.665768,-3404.947333,-74617.701505
1015.059867,-1628.453072,1036.288319,-75230.577904
1015.062412,4441.235652,-1184.329507,-77682.083497
1015.064957,1036.288319,14508.036463,-75690.235202
1015.067502,1036.288319,13323.706956,-73698.386908
1015.070047,2812.782580,2516.700203,-73238.729609
1015.072592,-296.082377,11843.295072,-74004.825107
1015.075137,-2664.741391,10362.883188,-79367.493593
1015.077682,3849.070898,-296.082377,-78754.617194
1015.080227,-7254.018232,7550.100608,-73238.729609
1015.082772,7402.059420,5181.441594,-70480.785816
1015.085317,-15248.242405,5625.565159,-73698.386908
1015.087837,-15248.242405,-4293.194464,-77222.426198
1015.090358,7550.100608,11103.089130,-76456.330700
1015.092878,14952.160028,4441.235652,-79367.493593
1015.095398,-15544.324782,-1036.288319,-79061.055394
1015.097919,9770.718434,-1628.453072,-71400.100414
1015.100439,13619.789333,-6365.771101,-70634.004916
1015.102960,9622.677246,-4589.276840,-76303.111601
1015.105480,-2664.741391,-3701.029710,-79673.931792
1015.108000,3849.070898,-1480.411884,-78141.740796
1015.110521,-7402.059420,-2368.659014,-75230.577904
1015.113041,9622.677246,-1924.535449,-71093.662214
1015.115561,-740.205942,-740.205942,-72779.072310
1015.118082,1628.453072,-7994.224174,-77682.083497
1015.120602,-1628.453072,-1924.535449,-77069.207099
1015.123123,10510.924376,4441.235652,-75843.454302
1015.125643,2368.659014,444.123565,-75383.797003
1015.128163,3849.070898,-7402.059420,-74770.920605
1015.130684,-7402.059420,-8290.306550,-75843.454302
1015.133204,7550.100608,1184.329507,-77222.426198
1015.135724,4441.235652,-1332.370696,-76915.987999
1015.138245,592.164754,-6957.935855,-75537.016103
1015.140765,18357.107362,-1036.288319,-72932.291410
1015.143286,17172.777854,-3108.864956,-75843.454302
1015.145806,-11251.130318,7254.018232,-76609.549800
1015.148326,30496.484810,10955.047942,-72932.291410
1015.150847,-740.205942,9474.636058,-75077.358804
1015.153367,-4589.276840,444.123565,-74617.701505
1015.155887,-25167.002028,-2368.659014,-76149.892501
1015.158408,296.082377,2812.782580,-73698.386908
1015.160928,148.041188,4441.235652,-75383.797003
1015.163449,7698.141797,13619.789333,-75383.797003
1015.165969,1036.288319,740.205942,-76303.111601
1015.168489,-4441.235652,-1628.453072,-73085.510509
1015.171010,5773.606348,11695.253884,-74924.139704
1015.173530,-8734.430116,1776.494261,-77988.521696
1015.176050,-7698.141797,-1480.411884,-79061.055394
1015.178571,0.000000,9474.636058,-77835.302597
1015.181091,-3552.988522,17764.942608,-74158.044206
1015.183612,-2072.576638,5625.565159,-73085.510509
1015.186132,-21465.972318,2368.659014,-73238.729609
1015.188661,2812.782580,4145.153275,-75077.358804
1015.191191,-23686.590144,-2960.823768,-80593.246390
1015.193720,2072.576638,6069.688724,-77069.207099
1015.196250,8882.471304,1776.494261,-73545.167808
1015.198779,-3849.070898,-7698.141797,-72779.072310
1015.201308,19393.395680,-15396.283594,-70940.443115
1015.203838,18653.189738,2220.617826,-73085.510509
1015.206367,3849.070898,-9474.636058,-79673.931792
1015.208897,2072.576638,4885.359217,-77069.207099
1015.211426,3256.906145,1036.288319,-76609.549800
1015.213955,-7105.977043,1924.535449,-75230.577904
1015.216485,5773.606348,-1776.494261,-72932.291410
1015.219014,14804.118840,1776.494261,-75843.454302
1015.221544,9326.594869,-444.123565,-78141.740796
1015.224073,-2220.617826,-1480.411884,-77375.645298
1015.226602,4885.359217,-15840.407159,-76303.111601
1015.229132,7402.059420,888.247130,-71859.757712
1015.231661,6957.935855,-3108.864956,-76149.892501
1015.234191,2368.659014,-7846.182985,-76456.330700
1015.236720,-1036.288319,-4885.359217,-76149.892501
1015.239250,18505.148550,3404.947333,-75077.358804
1015.241779,3849.070898,-11695.253884,-77222.426198
1015.244308,13915.871710,2220.617826,-72166.195912
1015.246838,16876.695478,8586.388927,-72779.072310
1015.249367,-13767.830521,10510.924376,-76609.549800
1015.251897,-12731.542202,2960.823768,-77069.207099
1015.254426,-26055.249158,4737.318029,-76456.330700
1015.256955,-9326.594869,-1776.494261,-76456.330700
1015.259485,-296.082377,3701.029710,-75996.673402
1015.262014,6661.853478,8734.430116,-75843.454302
1015.264544,-1776.494261,11251.130318,-74311.263306
1015.267073,3404.947333,-296.082377,-73545.167808
1015.269610,-7994.224174,-11547.212695,-73391.948708
1015.272146,4293.194464,14656.077652,-74311.263306
1015.274683,6069.688724,23982.672521,-79673.931792
1015.277220,-2516.700203,-5625.565159,-78601.398095
1015.279757,-14804.118840,-1480.411884,-74617.701505
1015.282293,9770.718434,9622.677246,-69867.909418
1015.284830,-2960.823768,9622.677246,-72472.634111
1015.287367,888.247130,18209.066173,-76456.330700
1015.289904,-13323.706956,-4885.359217,-82738.313784
1015.292440,11991.336260,4737.318029,-75996.673402
1015.294977,18505.148550,3997.112087,-72625.853210
1015.297514,-11547.212695,-10362.883188,-75537.016103
1015.300050,13323.706956,-20281.642811,-72472.634111
1015.302587,18505.148550,5773.606348,-72472.634111
1015.305124,7846.182985,-1184.329507,-78754.617194
1015.307661,-1480.411884,444.123565,-79367.493593
1015.310197,-592.164754,-5625.565159,-76609.549800
1015.312734,-4145.153275,-4885.359217,-73698.386908
1015.315271,-740.205942,-8882.471304,-74924.139704
1015.317807,0.000000,296.082377,-75843.454302
1015.320344,10214.842000,2812.782580,-75690.235202
1015.322881,444.123565,-2072.576638,-76456.330700
1015.325418,6069.688724,-5773.606348,-74617.701505
1015.327954,-296.082377,-4441.235652,-73085.510509
1015.330491,4293.194464,-2220.617826,-75230.577904
1015.333028,3701.029710,-444.123565,-76303.111601
1015.335565,-740.205942,-3552.988522,-76915.987999
1015.338101,18061.024985,2368.659014,-75077.358804
1015.340638,14656.077652,-9474.636058,-76762.768900
1015.343175,-296.082377,7105.977043,-73545.167808
1015.345711,17616.901420,12435.459826,-73085.510509
1015.348248,-10066.800811,8290.306550,-75690.235202
1015.350785,-3404.947333,1776.494261,-75537.016103
1015.353322,-13767.830521,3108.864956,-76456.330700
1015.355858,-3997.112087,-2072.576638,-77375.645298
1015.358395,-7105.977043,1628.453072,-76303.111601
1015.360932,6513.812290,10362.883188,-75077.358804
1015.363468,-2220.617826,7994.224174,-74770.920605
1015.366005,-3256.906145,-4885.359217,-73238.729609
1015.368542,4293.194464,14359.995275,-73238.729609
1015.371084,-888.247130,6809.894666,-77069.207099
1015.373628,2664.741391,16136.489536,-78754.617194
1015.376171,-6809.894666,-2812.782580,-76149.892501
1015.378714,-10658.965565,740.205942,-73391.948708
1015.381258,4293.194464,12287.418637,-70174.347617
1015.383801,-15988.448347,3256.906145,-74617.701505
1015.386345,-9326.594869,7550.100608,-75690.235202
1015.388888,9030.512492,2516.700203,-77682.083497
1015.391432,-15840.407159,444.123565,-79520.712692
1015.393975,14656.077652,-1776.494261,-72932.291410
1015.396519,4737.318029,-3849.070898,-71859.757712
1015.399062,9178.553681,-10510.924376,-74464.482406
1015.401606,7550.100608,2664.741391,-73391.948708
1015.404149,14508.036463,3256.906145,-76456.330700
1015.406692,-7402.059420,2664.741391,-77069.207099
1015.409236,9474.636058,-6513.812290,-74770.920605
1015.411779,-2368.659014,-5477.523971,-75077.358804
1015.414323,0.000000,-8290.306550,-75996.673402
1015.416866,3701.029710,-9030.512492,-75230.577904
1015.419410,8882.471304,4145.153275,-75383.797003
1015.421953,9918.759623,5773.606348,-75690.235202
1015.424497,11103.089130,-3849.070898,-75230.577904
1015.427040,4441.235652,-17764.942608,-75537.016103
1015.429583,11843.295072,-14359.995275,-73698.386908
1015.432127,7698.141797,6513.812290,-74770.920605
1015.434670,17764.942608,3404.947333,-75230.577904
1015.437214,2368.659014,-11547.212695,-77682.083497
1015.439757,10510.924376,6809.894666,-73545.167808
1015.442301,13471.748144,9918.759623,-73851.606007
1015.444844,3849.070898,14656.077652,-74004.825107
1015.447388,-5773.606348,5773.606348,-75537.016103
1015.449931,-29460.196492,8586.388927,-77375.645298
1015.452475,-15100.201217,-1776.494261,-76762.768900
1015.455018,-1036.288319,7550.100608,-75690.235202
1015.457561,5477.523971,2812.782580,-76609.549800
1015.460105,-2960.823768,1036.288319,-76303.111601
1015.462648,-4589.276840,-4737.318029,-74004.825107
1015.465192,-10214.842000,-16580.613101,-73391.948708
1015.467735,740.205942,9770.718434,-74004.825107
1015.470279,3404.947333,28868.031738,-78141.740796
1015.472799,-2368.659014,148.041188,-77988.521696
1015.475319,-18505.148550,-7105.977043,-76456.330700
1015.477839,6957.935855,8142.265362,-70174.347617
1015.480359,-8882.471304,11103.089130,-71859.757712
1015.482879,-7105.977043,13027.624579,-75383.797003
1015.485400,-15692.365970,-592.164754,-80593.246390
1015.487920,11399.171507,5625.565159,-76762.768900
1015.490440,13767.830521,2960.823768,-75690.235202
1015.492960,740.205942,-5773.606348,-74311.263306
1015.495480,5329.482782,-13915.871710,-74924.139704
1015.498000,8586.388927,592.164754,-72932.291410
1015.500521,14656.077652,1924.535449,-76762.768900
1015.503041,-4589.276840,2812.782580,-78754.617194
1015.505561,1628.453072,-5477.523971,-77222.426198
1015.508081,-1776.494261,2072.576638,-72625.853210
1015.510601,8142.265362,-2368.659014,-73545.167808
1015.513121,2516.700203,2220.617826,-74770.920605
1015.515641,15544.324782,-296.082377,-75690.235202
1015.518162,2220.617826,-3256.906145,-75996.673402
1015.520682,5181.441594,-5477.523971,-77069.207099
1015.523202,-888.247130,-14063.912898,-75537.016103
1015.525722,3256.906145,-10807.006753,-75230.577904
1015.528242,1924.535449,3404.947333,-75077.358804
1015.530762,7698.141797,3256.906145,-76609.549800
1015.533283,9474.636058,-13767.830521,-77069.207099
1015.535803,20133.601622,4293.194464,-73545.167808
1015.538323,7254.018232,3849.070898,-76915.987999
1015.540843,-1924.535449,15396.283594,-74617.701505
1015.543363,444.123565,7105.977043,-73851.606007
1015.545883,-27683.702231,13175.665768,-76609.549800
1015.548403,-17616.901420,-4145.153275,-79061.055394
1015.550924,-10955.047942,-740.205942,-76915.987999
1015.553444,6957.935855,2516.700203,-75996.673402
1015.555964,1480.411884,5033.400406,-74158.044206
1015.558484,2812.782580,592.164754,-71553.319513
1015.561004,148.041188,11103.089130,-73391.948708
1015.563524,-3404.947333,-1036.288319,-76762.768900
1015.566045,-6957.935855,-296.082377,-77988.521696
1015.568565,-1036.288319,11991.336260,-77682.083497
1015.571085,1480.411884,16580.613101,-74464.482406
1015.573615,-4145.153275,2516.700203,-72319.415011
1015.576145,-17764.942608,-3701.029710,-71706.538613
1015.578675,4885.359217,9622.677246,-71859.757712
1015.581205,-10362.883188,-2960.823768,-80440.027290
1015.583735,-17468.860231,-1036.288319,-81818.999186
1015.586265,11695.253884,-1480.411884,-74464.482406
1015.588796,13471.748144,-2516.700203,-70174.347617
1015.591326,12731.542202,-11843.295072,-72166.195912
1015.593856,7994.224174,-3997.112087,-73391.948708
1015.596386,11547.212695,-7402.059420,-77528.864398
1015.598916,-5181.441594,5773.606348,-78448.178995
1015.601446,2072.576638,3552.988522,-76762.768900
1015.603976,-8142.265362,-296.082377,-75383.797003
1015.606506,-5625.565159,-7698.141797,-73851.606007
1015.609036,9918.759623,-11547.212695,-73085.510509
1015.611566,15692.365970,-4589.276840,-73851.606007
1015.614097,11547.212695,888.247130,-74617.701505
1015.616627,7105.977043,-7105.977043,-75996.673402
1015.619157,888.247130,-12879.583391,-75537.016103
1015.621687,-4293.194464,-11251.130318,-75996.673402
1015.624217,-2072.576638,-2664.741391,-74924.139704
1015.626747,14804.118840,9030.512492,-76149.892501
1015.629277,9622.677246,-5921.647536,-78448.178995
1015.631807,6217.729913,5477.523971,-74311.263306
1015.634337,21762.054695,6809.894666,-73238.729609
1015.636867,-4737.318029,8586.388927,-75077.358804
1015.639398,-10066.800811,148.041188,-75383.797003
1015.641928,-29460.196492,5033.400406,-76609.549800
1015.644458,-8142.265362,592.164754,-77528.864398
1015.646988,-6217.729913,5181.441594,-77222.426198
1015.649518,6957.935855,10955.047942,-75383.797003
1015.652048,1924.535449,7105.977043,-72472.634111
1015.654578,3997.112087,8882.471304,-72625.853210
1015.657108,-9918.759623,296.082377,-74464.482406
1015.659638,-7846.182985,-10214.842000,-77835.302597
1015.662169,-2072.576638,11251.130318,-77988.521696
1015.664699,1924.535449,17320.819043,-76915.987999
1015.667229,-3256.906145,4145.153275,-74004.825107
1015.669759,-6809.894666,-1480.411884,-71859.757712
1015.672289,-2516.700203,-4737.318029,-73391.948708
1015.674828,-9474.636058,-1480.411884,-76303.111601
1015.677366,25463.084405,2072.576638,-75843.454302
1015.679905,-4145.153275,-7402.059420,-79520.712692
1015.682443,-4145.153275,-7402.059420,-75537.016103
1015.684982,22502.260637,-8290.306550,-70174.347617
1015.687521,10955.047942,-296.082377,-73698.386908
1015.690059,-2812.782580,-6957.935855,-76762.768900
1015.692598,13323.706956,296.082377,-76456.330700
1015.695137,592.164754,-888.247130,-77528.864398
1015.697675,6217.729913,-9030.512492,-75537.016103
1015.700214,-2960.823768,-11251.130318,-75383.797003
1015.702753,1184.329507,1184.329507,-74158.044206
1015.705291,11991.336260,-1184.329507,-74464.482406
1015.707830,3849.070898,-2664.741391,-77069.207099
1015.710368,5921.647536,-1480.411884,-77375.645298
1015.712907,8882.471304,-6217.729913,-76915.987999
1015.715446,3701.029710,-13619.789333,-74617.701505
1015.717984,3701.029710,-3108.864956,-72932.291410
1015.720523,6069.688724,3108.864956,-74311.263306
1015.723062,11103.089130,-11991.336260,-76915.987999
1015.725600,15692.365970,-148.041188,-75230.577904
1015.728139,-1628.453072,6957.935855,-77069.207099
1015.730678,8882.471304,12435.459826,-74617.701505
1015.733216,-16136.489536,8290.306550,-76609.549800
1015.735755,-35825.967593,10658.965565,-77069.207099
1015.738293,-14656.077652,2516.700203,-77069.207099
1015.740832,-1184.329507,5773.606348,-76149.892501
1015.743371,4737.318029,1036.288319,-77375.645298
1015.745909,-4293.194464,-2368.659014,-76149.892501
1015.748448,-7550.100608,1184.329507,-72779.072310
1015.750987,-888.247130,10214.842000,-71859.757712
1015.753525,-3701.029710,4145.153275,-75690.235202
1015.756064,-592.164754,-2516.700203,-77682.083497
1015.758603,-2812.782580,2960.823768,-77988.521696
1015.761141,1332.370696,12287.418637,-75996.673402
1015.763680,-2516.700203,8734.430116,-71706.538613
1015.766218,-20577.725188,-1184.329507,-74924.139704
1015.768757,-13175.665768,2664.741391,-74617.701505
1015.771296,33457.308578,7698.141797,-74004.825107
1015.773834,-2072.576638,-8290.306550,-79827.150892
1015.776380,4885.359217,-5625.565159,-75537.016103
1015.778925,20725.766376,-5033.400406,-70940.443115
1015.781470,10658.965565,444.123565,-73238.729609
1015.784015,-1776.494261,-5921.647536,-74770.920605
1015.786560,12435.459826,-7105.977043,-74770.920605
1015.789105,2368.659014,1480.411884,-76456.330700
1015.791651,7402.059420,4737.318029,-76303.111601
1015.794196,-2960.823768,-5329.482782,-75383.797003
1015.796741,-296.082377,3997.112087,-72472.634111
1015.799286,1480.411884,3849.070898,-74617.701505
1015.801831,0.000000,-592.164754,-75843.454302
1015.804377,3256.906145,-4589.276840,-78294.959896
1015.806922,5181.441594,-11547.212695,-77682.083497
1015.809467,4145.153275,-11103.089130,-75383.797003
1015.812012,740.205942,6661.853478,-73391.948708
1015.814557,2664.741391,-1332.370696,-75383.797003
1015.817102,6069.688724,-16432.571912,-76762.768900
1015.819648,20577.725188,444.123565,-75383.797003
1015.822193,740.205942,7698.141797,-78141.740796
1015.824738,-2072.576638,7550.100608,-75537.016103
1015.827283,-10214.842000,6365.771101,-74770.920605
1015.829828,-24870.919651,9622.677246,-74770.920605
1015.832374,-5329.482782,6217.729913,-75537.016103
1015.834919,444.123565,4293.194464,-76915.987999
1015.837464,4589.276840,-3849.070898,-78294.959896
1015.840009,3997.112087,14952.160028,-74004.825107
1015.842554,8438.347739,15248.242405,-72166.195912
1015.845100,2664.741391,-2368.659014,-70940.443115
1015.847645,-1332.370696,5625.565159,-75383.797003
1015.850190,-3108.864956,13027.624579,-80286.808190
1015.852735,-6217.729913,9770.718434,-78294.959896
1015.855280,-9474.636058,7402.059420,-76609.549800
1015.857825,-7698.141797,10362.883188,-72012.976812
1015.860371,-4737.318029,8142.265362,-71706.538613
1015.862916,-13175.665768,1776.494261,-75690.235202
1015.865461,25759.166782,740.205942,-74617.701505
1015.868006,-148.041188,-8142.265362,-79520.712692
1015.870551,-296.082377,-6957.935855,-75996.673402
1015.873097,17320.819043,-9918.759623,-70940.443115
1015.875642,5181.441594,-1332.370696,-73238.729609
1015.878193,-4293.194464,-2664.741391,-74924.139704
1015.880744,3404.947333,-1776.494261,-76915.987999
1015.883295,-2516.700203,3849.070898,-77682.083497
1015.885846,7994.224174,1924.535449,-73545.167808
1015.888397,8734.430116,5477.523971,-72625.853210
1015.890948,7994.224174,9326.594869,-74617.701505
1015.893500,-9918.759623,-7254.018232,-78141.740796
1015.896051,5477.523971,-6513.812290,-74004.825107
1015.898602,11399.171507,13471.748144,-75537.016103
1015.901153,7698.141797,8882.471304,-78601.398095
1015.903704,-9178.553681,-17024.736666,-77069.207099
1015.906255,-1332.370696,-26499.372724,-73698.386908
1015.908806,15396.283594,-1184.329507,-71859.757712
1015.911357,10955.047942,-4589.276840,-77988.521696
1015.913909,2072.576638,5329.482782,-77528.864398
1015.916460,13915.871710,3849.070898,-75537.016103
1015.919011,-2664.741391,7550.100608,-74311.263306
1015.921562,2220.617826,7994.224174,-72625.853210
1015.924113,-28868.031738,-888.247130,-77069.207099
1015.926664,-20281.642811,-5033.400406,-78601.398095
1015.929215,-9178.553681,-3256.906145,-77069.207099
1015.931766,7105.977043,14359.995275,-76762.768900
1015.934317,7994.224174,17172.777854,-73851.606007
1015.936869,3997.112087,-3404.947333,-71706.538613
1015.939420,888.247130,-7402.059420,-71553.319513
1015.941971,-5181.441594,11251.130318,-76609.549800
1015.944522,-3997.112087,14508.036463,-81206.122788
1015.947073,-13619.789333,6661.853478,-78601.398095
1015.949624,-8142.265362,6217.729913,-73545.167808
1015.952175,-444.123565,6365.771101,-69255.033019
1015.954726,-9030.512492,7402.059420,-71246.881314
1015.957277,-14211.954086,-3701.029710,-78601.398095
1015.959829,-5033.400406,2368.659014,-78907.836294
1015.962380,29608.237680,8586.388927,-75077.358804
1015.964931,-5625.565159,-11251.130318,-77069.207099
1015.967482,12731.542202,-16432.571912,-71859.757712
1015.970033,15396.283594,0.000000,-68795.375720
1015.972584,9326.594869,5329.482782,-74004.825107
1015.975135,-3849.070898,-1628.453072,-79980.369991
1015.977686,-4737.318029,-9770.718434,-80133.589091
1015.980214,-6217.729913,-13175.665768,-77375.645298
1015.982741,12879.583391,2516.700203,-70634.004916
1015.985268,1184.329507,2960.823768,-73545.167808
1015.987795,-3552.988522,-11399.171507,-76762.768900
1015.990322,3108.864956,-5329.482782,-76762.768900
1015.992849,14952.160028,-2664.741391,-78601.398095
1015.995377,13027.624579,-12583.501014,-74770.920605
1015.997904,1628.453072,-3849.070898,-74617.701505
1016.000431,4885.359217,-3997.112087,-73545.167808
1016.002958,13323.706956,-9030.512492,-73545.167808
1016.005485,20281.642811,1332.370696,-75537.016103
1016.008013,-3404.947333,7846.182985,-77682.083497
1016.010540,9326.594869,14063.912898,-75230.577904
1016.013067,-4145.153275,9178.553681,-74004.825107
1016.015594,-27683.702231,7402.059420,-74158.044206
1016.018121,-20429.683999,296.082377,-76303.111601
1016.020648,-2220.617826,-444.123565,-76609.549800
1016.023176,-740.205942,2960.823768,-78294.959896
1016.025703,-5181.441594,888.247130,-76762.768900
1016.028230,-6069.688724,13323.706956,-72932.291410
1016.030757,296.082377,12287.418637,-69714.690318
1016.033284,-10955.047942,2516.700203,-74924.139704
1016.035812,-9918.759623,-2960.823768,-79214.274493
1016.038339,-12583.501014,5181.441594,-80440.027290
1016.040866,0.000000,10214.842000,-75690.235202
1016.043393,-6069.688724,10658.965565,-73238.729609
1016.045920,-6365.771101,16728.654289,-72012.976812
1016.048447,-16136.489536,-740.205942,-76456.330700
1016.050975,18209.066173,7994.224174,-76303.111601
1016.053502,16728.654289,-3552.988522,-78294.959896
1016.056029,3997.112087,-9474.636058,-78141.740796
1016.058556,21021.848753,-16580.613101,-70634.004916
1016.061083,19245.354492,592.164754,-69255.033019
1016.063611,-1924.535449,-6513.812290,-74464.482406
1016.066138,3701.029710,-3849.070898,-76456.330700
1016.068665,-3108.864956,-4293.194464,-77069.207099
1016.071192,2368.659014,-4145.153275,-76456.330700
1016.073719,6217.729913,-10066.800811,-72319.415011
1016.076246,22502.260637,3108.864956,-68335.718422
1016.078774,7105.977043,0.000000,-73698.386908
1016.081310,1184.329507,-3108.864956,-78294.959896
1016.083847,3997.112087,-11695.253884,-80899.684589
1016.086383,6217.729913,-9030.512492,-77988.521696
1016.088920,2960.823768,10362.883188,-74464.482406
1016.091457,1332.370696,1036.288319,-74770.920605
1016.093993,10807.006753,-13027.624579,-72932.291410
1016.096530,17764.942608,-1628.453072,-74617.701505
1016.099066,-7994.224174,13323.706956,-79367.493593
1016.101603,5773.606348,9770.718434,-77528.864398
1016.104140,-20429.683999,4737.318029,-76915.987999
1016.106676,-28719.990550,10362.883188,-73698.386908
1016.109213,-4589.276840,9770.718434,-72012.976812
1016.111750,6365.771101,10510.924376,-75690.235202
1016.114286,1924.535449,-10807.006753,-78907.836294
1016.116823,-1036.288319,7402.059420,-77222.426198
1016.119359,6513.812290,11843.295072,-73698.386908
1016.121896,3849.070898,-19541.436869,-71706.538613
1016.124433,0.000000,-9178.553681,-71553.319513
