#time,accel_x,accel_y,accel_z
700.047670,1332.370696,1776.494261,-75230.577904
700.050223,1480.411884,2072.576638,-75843.454302
700.052777,1628.453072,2072.576638,-75077.358804
700.055331,1184.329507,1184.329507,-74770.920605
700.057884,1628.453072,1924.535449,-75077.358804
700.060438,1480.411884,1332.370696,-75537.016103
700.062992,1628.453072,1628.453072,-75537.016103
700.065545,888.247130,-296.082377,-76915.987999
700.068099,-11695.253884,2812.782580,-78141.740796
700.070653,-38934.832549,22946.384202,-77988.521696
700.073206,18209.066173,12583.501014,-70787.224015
700.075760,34641.638086,-6957.935855,-71400.100414
700.078314,-13175.665768,-15988.448347,-74617.701505
700.080867,-26203.290347,0.000000,-76915.987999
700.083421,-9918.759623,6513.812290,-74924.139704
700.085974,12879.583391,888.247130,-74311.263306
700.088528,-2960.823768,-444.123565,-77988.521696
700.091082,-2516.700203,-1480.411884,-77835.302597
700.093635,-1480.411884,5033.400406,-73545.167808
700.096189,25463.084405,2072.576638,-71553.319513
700.098743,-1776.494261,-6661.853478,-76915.987999
700.101296,17616.901420,10510.924376,-76762.768900
700.103850,-22502.260637,-2664.741391,-79827.150892
700.106404,27535.661042,-3256.906145,-73391.948708
700.108957,6513.812290,-2664.741391,-73545.167808
700.111511,-888.247130,6661.853478,-74924.139704
700.114065,-13767.830521,-2664.741391,-77682.083497
700.116614,-7402.059420,9326.594869,-78601.398095
700.119169,13027.624579,-3997.112087,-75383.797003
700.121724,-1628.453072,3997.112087,-76303.111601
700.124280,3108.864956,-4293.194464,-73085.510509
700.126835,14508.036463,8882.471304,-70634.004916
700.129390,30348.443622,-8734.430116,-70327.566716
700.131945,22502.260637,-9030.512492,-75077.358804
700.134500,-10214.842000,4145.153275,-78294.959896
700.137055,-28423.908173,25167.002028,-78754.617194
700.139610,2072.576638,5033.400406,-72625.853210
700.142165,60992.969621,-7254.018232,-64964.898230
700.144720,21021.848753,-13027.624579,-72932.291410
700.147275,18801.230927,-11991.336260,-75690.235202
700.149830,-9030.512492,1776.494261,-79214.274493
700.152386,2812.782580,-2516.700203,-73238.729609
700.154941,27831.743419,-4145.153275,-70634.004916
700.157496,-2220.617826,4441.235652,-73545.167808
700.160051,-17172.777854,3256.906145,-78754.617194
700.162606,-1480.411884,3404.947333,-76609.549800
700.165161,14508.036463,-444.123565,-75383.797003
700.167716,-6365.771101,-2072.576638,-76915.987999
700.170271,8882.471304,2960.823768,-74158.044206
700.172826,14804.118840,7994.224174,-73238.729609
700.175381,3256.906145,148.041188,-76915.987999
700.177937,-4441.235652,-9326.594869,-79214.274493
700.180492,-14804.118840,-3404.947333,-78601.398095
700.183047,16432.571912,11547.212695,-71553.319513
700.185602,15692.365970,3256.906145,-73545.167808
700.188157,-26055.249158,-11547.212695,-78907.836294
700.190712,-14211.954086,4737.318029,-77222.426198
700.193267,12879.583391,3108.864956,-75077.358804
700.195822,-6957.935855,6809.894666,-75690.235202
700.198377,15692.365970,-3552.988522,-73698.386908
700.200932,-5181.441594,-444.123565,-73851.606007
700.203487,3108.864956,-888.247130,-74464.482406
700.206043,-11547.212695,0.000000,-75690.235202
700.208598,-2072.576638,-5033.400406,-76915.987999
700.211153,-15544.324782,444.123565,-77375.645298
700.213708,14359.995275,3256.906145,-72779.072310
700.216263,-13323.706956,8438.347739,-74924.139704
700.218674,-8882.471304,1332.370696,-75690.235202
700.221085,-6365.771101,-7254.018232,-75230.577904
700.223496,11991.336260,14952.160028,-74311.263306
700.225907,-7846.182985,2664.741391,-76149.892501
700.228319,5181.441594,7550.100608,-72932.291410
700.230730,21465.972318,-2516.700203,-74004.825107
700.233141,-22502.260637,18061.024985,-73085.510509
700.235552,49001.633360,-4441.235652,-69408.252119
700.237963,18209.066173,5773.606348,-75383.797003
700.240374,-15544.324782,-740.205942,-75537.016103
700.242785,5477.523971,7846.182985,-74158.044206
700.245196,-4293.194464,2812.782580,-75383.797003
700.247607,-9178.553681,-740.205942,-77375.645298
700.250019,-20873.807564,7254.018232,-76303.111601
700.252430,21910.095883,592.164754,-72779.072310
700.254841,1924.535449,-4441.235652,-74004.825107
700.257252,740.205942,2220.617826,-74004.825107
700.259663,-4589.276840,-740.205942,-74770.920605
700.262074,-444.123565,-4737.318029,-74924.139704
700.264485,-2960.823768,4145.153275,-73698.386908
700.266896,15248.242405,-4293.194464,-73545.167808
700.269308,2368.659014,-6069.688724,-75690.235202
700.271719,-2072.576638,9918.759623,-74464.482406
700.274130,-13027.624579,-6365.771101,-77375.645298
700.276541,-2960.823768,8438.347739,-75383.797003
700.278952,8586.388927,-3256.906145,-72932.291410
700.281363,28868.031738,4737.318029,-74770.920605
700.283774,-19985.560434,-8290.306550,-80133.589091
700.286185,17912.983796,-3256.906145,-72319.415011
700.288596,8882.471304,8438.347739,-73851.606007
700.291008,5329.482782,5329.482782,-76762.768900
700.293419,2664.741391,-6957.935855,-75537.016103
700.295830,17616.901420,16432.571912,-74617.701505
700.298241,21465.972318,-444.123565,-74158.044206
700.300652,-10807.006753,1184.329507,-77682.083497
700.303063,5033.400406,-9770.718434,-75077.358804
700.305474,14656.077652,7402.059420,-72625.853210
700.307885,14656.077652,-3849.070898,-77835.302597
700.310297,-25167.002028,7254.018232,-80899.684589
700.312708,11251.130318,-5181.441594,-75077.358804
700.315172,9326.594869,6661.853478,-73391.948708
700.317636,888.247130,2220.617826,-74464.482406
700.320100,-6661.853478,20725.766376,-74004.825107
700.322565,59808.640114,-2220.617826,-67876.061123
700.325029,19541.436869,-6957.935855,-75537.016103
700.327493,15248.242405,-6661.853478,-77375.645298
700.329957,-45744.727216,11843.295072,-78907.836294
700.332422,15248.242405,22798.343014,-67569.622924
700.334886,38342.667796,5181.441594,-71553.319513
700.337350,17912.983796,-10362.883188,-76303.111601
700.339814,-4145.153275,-296.082377,-74924.139704
700.342279,29756.278868,8438.347739,-68182.499322
700.344743,3849.070898,-3552.988522,-74770.920605
700.347207,-1924.535449,1480.411884,-76456.330700
700.349672,-10807.006753,-3701.029710,-77988.521696
700.352136,10955.047942,13027.624579,-74617.701505
700.354600,-2664.741391,-11843.295072,-76762.768900
700.357064,5921.647536,1480.411884,-74158.044206
700.359529,21021.848753,-3552.988522,-73391.948708
700.361993,-8734.430116,12287.418637,-75843.454302
700.364457,-3997.112087,-15544.324782,-78601.398095
700.366921,1776.494261,-3701.029710,-75230.577904
700.369386,34493.596897,7994.224174,-71093.662214
700.371850,-11843.295072,5477.523971,-77069.207099
700.374314,-24870.919651,-16432.571912,-81052.903688
700.376778,-5773.606348,7994.224174,-75843.454302
700.379243,12731.542202,9918.759623,-74004.825107
700.381707,-20281.642811,-1184.329507,-77375.645298
700.384171,16432.571912,-5625.565159,-75077.358804
700.386635,740.205942,2664.741391,-73851.606007
700.389100,15248.242405,3404.947333,-73085.510509
700.391564,-15840.407159,-5625.565159,-76303.111601
700.394028,-4885.359217,-3701.029710,-76456.330700
700.396492,4589.276840,6069.688724,-73545.167808
700.398957,6809.894666,8438.347739,-74004.825107
700.401421,-19689.478057,-8586.388927,-77835.302597
700.403885,-3404.947333,-10807.006753,-76456.330700
700.406349,-7105.977043,5625.565159,-72625.853210
700.408814,8142.265362,21169.889941,-75230.577904
700.411278,11991.336260,-1480.411884,-71553.319513
700.413780,51518.333563,-25907.207970,-71093.662214
700.416282,30792.567187,-16136.489536,-71400.100414
700.418784,-13767.830521,444.123565,-75996.673402
700.421286,12287.418637,-9474.636058,-75077.358804
700.423788,12879.583391,-888.247130,-75537.016103
700.426290,-17616.901420,-9030.512492,-78141.740796
700.428792,-10066.800811,11695.253884,-75230.577904
700.431294,3404.947333,7994.224174,-73238.729609
700.433796,13027.624579,-9622.677246,-74158.044206
700.436298,-23390.507767,2220.617826,-78141.740796
700.438800,-6069.688724,5033.400406,-79673.931792
700.441302,-9326.594869,296.082377,-75996.673402
700.443804,30052.361245,-4441.235652,-71093.662214
700.446306,-444.123565,4589.276840,-74158.044206
700.448808,0.000000,4145.153275,-76303.111601
700.451310,-37898.544230,148.041188,-79673.931792
700.453812,22946.384202,2812.782580,-75383.797003
700.456314,-13767.830521,2220.617826,-73391.948708
700.458816,15100.201217,3404.947333,-72779.072310
700.461318,-20281.642811,-5625.565159,-77988.521696
700.463820,2960.823768,2664.741391,-75690.235202
700.466322,24130.713709,6365.771101,-72012.976812
700.468824,1036.288319,4293.194464,-77375.645298
700.471326,-7254.018232,-7846.182985,-78141.740796
700.473828,21762.054695,4293.194464,-71246.881314
700.476329,-7550.100608,1924.535449,-74158.044206
700.478831,4145.153275,9178.553681,-77682.083497
700.481333,-17468.860231,-6365.771101,-79980.369991
700.483835,32865.143825,-2220.617826,-71093.662214
700.486337,-5329.482782,2664.741391,-74004.825107
700.488839,4145.153275,1332.370696,-76303.111601
700.491341,3849.070898,-444.123565,-75843.454302
700.493843,19985.560434,12583.501014,-74617.701505
700.496345,-14952.160028,3404.947333,-78294.959896
700.498847,19097.313304,-2368.659014,-76303.111601
700.501349,3404.947333,-6809.894666,-75230.577904
700.503851,-9918.759623,-2368.659014,-78754.617194
700.506353,-42931.944636,14804.118840,-77375.645298
700.508855,18061.024985,11843.295072,-75690.235202
700.511357,-5477.523971,5181.441594,-74158.044206
700.513883,42783.903448,-3404.947333,-69867.909418
700.516410,21762.054695,-17616.901420,-75077.358804
700.518936,-22206.178260,-592.164754,-79061.055394
700.521462,-13471.748144,14063.912898,-75690.235202
700.523988,24278.754898,11399.171507,-72779.072310
700.526514,17764.942608,-16728.654289,-75690.235202
700.529040,-3997.112087,5329.482782,-75077.358804
700.531566,-6513.812290,1184.329507,-75230.577904
700.534092,11399.171507,8438.347739,-73085.510509
700.536619,-3108.864956,-13027.624579,-76149.892501
700.539145,19245.354492,5181.441594,-72472.634111
700.541671,1332.370696,5773.606348,-75996.673402
700.544197,2368.659014,3256.906145,-75996.673402
700.546723,8142.265362,-10510.924376,-74464.482406
700.549249,14063.912898,11991.336260,-72012.976812
700.551775,17172.777854,-592.164754,-75230.577904
700.554301,-34049.473332,3552.988522,-81665.780087
700.556828,-3404.947333,-5181.441594,-76303.111601
700.559354,13027.624579,6365.771101,-72012.976812
700.561880,-5329.482782,-3552.988522,-75077.358804
700.564406,-7846.182985,0.000000,-76762.768900
700.566932,-4441.235652,2368.659014,-77682.083497
700.569458,3997.112087,1480.411884,-76303.111601
700.571984,5477.523971,-4145.153275,-75843.454302
700.574510,-1776.494261,5773.606348,-73698.386908
700.577037,-444.123565,5033.400406,-74311.263306
700.579563,-444.123565,5477.523971,-76609.549800
700.582089,-20429.683999,-3997.112087,-78141.740796
700.584615,-1924.535449,1924.535449,-75230.577904
700.587141,5625.565159,-1332.370696,-73698.386908
700.589667,1332.370696,-7402.059420,-73238.729609
700.592193,-18949.272115,2368.659014,-75996.673402
700.594720,22650.301825,-10510.924376,-71246.881314
700.597246,8438.347739,-12287.418637,-74158.044206
700.599772,-10066.800811,-6069.688724,-73391.948708
700.602298,-5625.565159,-5033.400406,-76149.892501
700.604824,-23390.507767,4737.318029,-79673.931792
700.607350,-29608.237680,9770.718434,-77528.864398
700.609876,9918.759623,-3849.070898,-74158.044206
700.612402,-16876.695478,-592.164754,-77222.426198
700.614946,-12287.418637,-1184.329507,-77528.864398
700.617490,-20725.766376,7698.141797,-77988.521696
700.620034,16876.695478,6661.853478,-75537.016103
700.622578,-15396.283594,-4885.359217,-77988.521696
700.625122,8882.471304,1332.370696,-75996.673402
700.627666,11547.212695,6069.688724,-74158.044206
700.630210,8142.265362,4589.276840,-76303.111601
700.632754,-20281.642811,-2516.700203,-79367.493593
700.635298,4885.359217,-3701.029710,-77222.426198
700.637842,-12583.501014,444.123565,-73238.729609
700.640386,19541.436869,4737.318029,-72625.853210
700.642930,-21021.848753,-5329.482782,-78907.836294
700.645474,-7846.182985,-1332.370696,-76609.549800
700.648018,28127.825796,-1036.288319,-71246.881314
700.650562,-1036.288319,3404.947333,-76149.892501
700.653106,1184.329507,-5477.523971,-76149.892501
700.655650,16136.489536,7994.224174,-72319.415011
700.658194,-4737.318029,9030.512492,-74770.920605
700.660738,-5625.565159,-2072.576638,-78294.959896
700.663282,-17912.983796,-2516.700203,-77835.302597
700.665826,22502.260637,-3256.906145,-71859.757712
700.668370,-8734.430116,6513.812290,-74158.044206
700.670914,7698.141797,-2072.576638,-74617.701505
700.673458,8734.430116,3404.947333,-73545.167808
700.676002,20281.642811,3701.029710,-73238.729609
700.678546,592.164754,-13471.748144,-77988.521696
700.681089,-11103.089130,-2368.659014,-75843.454302
700.683633,15988.448347,-5329.482782,-71246.881314
700.686177,16728.654289,-15100.201217,-75077.358804
700.688721,-18061.024985,-2516.700203,-78754.617194
700.691265,-10214.842000,5329.482782,-77528.864398
700.693809,1776.494261,-2516.700203,-74004.825107
700.696353,9918.759623,-13027.624579,-75690.235202
700.698897,-21021.848753,-12731.542202,-78601.398095
700.701441,22206.178260,-12583.501014,-75230.577904
700.703985,-8586.388927,-5921.647536,-77835.302597
700.706529,2220.617826,-1036.288319,-78754.617194
700.709073,-444.123565,-1924.535449,-74464.482406
700.711617,16728.654289,-2072.576638,-74158.044206
700.714161,-15692.365970,7994.224174,-77682.083497
700.716718,-13323.706956,-1628.453072,-78448.178995
700.719275,17764.942608,1036.288319,-73851.606007
700.721831,15692.365970,11695.253884,-74464.482406
700.724388,740.205942,4589.276840,-75077.358804
700.726945,-9326.594869,-3997.112087,-77528.864398
700.729502,-1924.535449,-8290.306550,-75996.673402
700.732058,39378.956114,8882.471304,-71246.881314
700.734615,-14804.118840,1184.329507,-79061.055394
700.737172,-34493.596897,-11695.253884,-81512.560987
700.739729,-3552.988522,8290.306550,-74770.920605
700.742285,7254.018232,5773.606348,-71553.319513
700.744842,-5329.482782,-3108.864956,-74004.825107
700.747399,-2960.823768,-2812.782580,-76456.330700
700.749956,-6365.771101,592.164754,-76149.892501
700.752512,3404.947333,-2220.617826,-73391.948708
700.755069,8438.347739,8438.347739,-71400.100414
700.757626,3552.988522,5625.565159,-72932.291410
700.760183,-1480.411884,7105.977043,-76303.111601
700.762739,-24278.754898,-2516.700203,-79520.712692
700.765296,740.205942,0.000000,-76609.549800
700.767853,3552.988522,3849.070898,-73391.948708
700.770410,-2516.700203,1480.411884,-75537.016103
700.772966,-7254.018232,-10362.883188,-78294.959896
700.775523,-31976.896694,13027.624579,-78294.959896
700.778080,4737.318029,13027.624579,-75383.797003
700.780637,21910.095883,4293.194464,-72932.291410
700.783193,-7994.224174,-1036.288319,-76609.549800
700.785750,-15248.242405,-5773.606348,-75843.454302
700.788307,-888.247130,-4589.276840,-74617.701505
700.790864,-3997.112087,8586.388927,-74464.482406
700.793420,-4737.318029,-4885.359217,-75230.577904
700.795977,-18061.024985,-6809.894666,-77682.083497
700.798542,-3404.947333,3552.988522,-73851.606007
700.801106,20873.807564,3701.029710,-74004.825107
700.803671,-5477.523971,-5921.647536,-78448.178995
700.806235,-16136.489536,-1628.453072,-78448.178995
700.808800,12583.501014,10214.842000,-74464.482406
700.811364,-9178.553681,15988.448347,-77222.426198
700.813929,-888.247130,2812.782580,-79520.712692
700.816494,-23834.631332,-5181.441594,-78754.617194
700.819058,13323.706956,-888.247130,-74004.825107
700.821623,14359.995275,-888.247130,-72472.634111
700.824187,-4293.194464,3552.988522,-78754.617194
700.826752,-15692.365970,-4589.276840,-76762.768900
700.829316,25167.002028,-1628.453072,-70327.566716
700.831881,-4145.153275,148.041188,-75690.235202
700.834445,8882.471304,-9770.718434,-75077.358804
700.837010,-14359.995275,2516.700203,-73545.167808
700.839575,5477.523971,8142.265362,-75077.358804
700.842139,-12287.418637,-7550.100608,-76915.987999
700.844704,20281.642811,-3256.906145,-72012.976812
700.847268,-7994.224174,4145.153275,-73238.729609
700.849833,2072.576638,3404.947333,-74004.825107
700.852397,1628.453072,-2368.659014,-75690.235202
700.854962,16432.571912,8290.306550,-73545.167808
700.857526,-5625.565159,4737.318029,-78448.178995
700.860091,8438.347739,-2072.576638,-77375.645298
700.862656,2812.782580,-16432.571912,-76609.549800
700.865220,-26203.290347,5921.647536,-78141.740796
700.867785,-9474.636058,5329.482782,-76149.892501
700.870349,9178.553681,-2220.617826,-77835.302597
700.872914,-21910.095883,-7698.141797,-81665.780087
700.875478,5181.441594,6069.688724,-74770.920605
700.878043,20281.642811,-3701.029710,-73545.167808
700.880607,3404.947333,5773.606348,-76456.330700
700.883172,1628.453072,-5033.400406,-78754.617194
700.885737,-4589.276840,-5921.647536,-76149.892501
700.888301,14063.912898,-6069.688724,-74924.139704
700.890866,-3849.070898,5033.400406,-74924.139704
700.893430,19393.395680,1332.370696,-77222.426198
700.895995,-23390.507767,-2664.741391,-79980.369991
700.898559,15840.407159,-7105.977043,-75843.454302
700.901129,4293.194464,7698.141797,-73085.510509
700.903700,9030.512492,-2220.617826,-76456.330700
700.906270,-19689.478057,-8290.306550,-77375.645298
700.908840,27091.537477,5773.606348,-71553.319513
700.911410,20429.683999,0.000000,-70787.224015
700.913980,7550.100608,7254.018232,-72166.195912
700.916550,-28868.031738,-5921.647536,-76915.987999
700.919120,-6957.935855,-3997.112087,-75996.673402
700.921690,-10510.924376,7550.100608,-73851.606007
700.924260,29460.196492,5329.482782,-70634.004916
700.926830,-5625.565159,-5625.565159,-74770.920605
700.929400,-4293.194464,444.123565,-75537.016103
700.931971,-11695.253884,-4589.276840,-74464.482406
700.934541,8586.388927,11547.212695,-72012.976812
700.937111,2960.823768,4885.359217,-75383.797003
700.939681,-24130.713709,-148.041188,-78601.398095
700.942251,-12731.542202,-5625.565159,-77069.207099
700.944821,-8142.265362,5625.565159,-76609.549800
700.947391,-10955.047942,14359.995275,-77835.302597
700.949961,-14804.118840,14656.077652,-75537.016103
700.952531,16432.571912,3404.947333,-73851.606007
700.955101,19837.519246,1184.329507,-74464.482406
700.957671,-17764.942608,2072.576638,-79367.493593
700.960242,-30792.567187,13915.871710,-78601.398095
700.962812,25463.084405,9918.759623,-72779.072310
700.965382,7105.977043,-3849.070898,-72472.634111
700.967952,-15396.283594,-12731.542202,-77222.426198
700.970522,-11103.089130,12583.501014,-76303.111601
700.973092,-13175.665768,3849.070898,-79214.274493
700.975662,-2220.617826,592.164754,-77069.207099
700.978232,7846.182985,-1184.329507,-74311.263306
700.980802,-3256.906145,5921.647536,-74924.139704
700.983372,2812.782580,-2664.741391,-74924.139704
700.985942,13619.789333,-9178.553681,-73851.606007
700.988513,5033.400406,9326.594869,-74004.825107
700.991083,-21317.931130,-2960.823768,-78448.178995
700.993653,-7254.018232,-1480.411884,-75996.673402
700.996223,19097.313304,-4441.235652,-69714.690318
700.998793,26795.455100,13619.789333,-72472.634111
701.001363,-14508.036463,-3849.070898,-78141.740796
701.003935,13767.830521,-6957.935855,-74158.044206
701.006507,18505.148550,5625.565159,-71093.662214
701.009078,10066.800811,5625.565159,-72625.853210
701.011650,-3256.906145,-6661.853478,-75690.235202
701.014222,18061.024985,15544.324782,-72779.072310
701.016794,-9770.718434,2664.741391,-77375.645298
701.019366,148.041188,5329.482782,-77528.864398
701.021938,11695.253884,-5625.565159,-74004.825107
701.024509,14359.995275,592.164754,-72625.853210
701.027081,-296.082377,-1036.288319,-75537.016103
701.029653,3256.906145,9622.677246,-77375.645298
701.032225,-3404.947333,-4293.194464,-78294.959896
701.034797,-23538.548956,-7994.224174,-79520.712692
701.037368,-37306.379477,-1184.329507,-81052.903688
701.039940,-11251.130318,7994.224174,-75690.235202
701.042512,15988.448347,-9178.553681,-76303.111601
701.045084,-30644.525999,-12879.583391,-81359.341888
701.047656,-19245.354492,9326.594869,-75996.673402
701.050228,23094.425390,592.164754,-71553.319513
701.052799,8290.306550,-2812.782580,-76609.549800
701.055371,-1332.370696,-4885.359217,-76303.111601
701.057943,5921.647536,-1184.329507,-73085.510509
701.060515,13027.624579,5329.482782,-74004.825107
701.063087,-444.123565,-3404.947333,-75383.797003
701.065658,11251.130318,-888.247130,-74770.920605
701.068230,8290.306550,11547.212695,-74464.482406
701.070802,9326.594869,3552.988522,-75383.797003
701.073374,3256.906145,-6365.771101,-75077.358804
701.075946,14804.118840,8586.388927,-71859.757712
701.078517,15840.407159,148.041188,-75690.235202
701.081089,-29312.155303,4293.194464,-80133.589091
701.083661,8734.430116,-8438.347739,-74311.263306
701.086233,6365.771101,4737.318029,-73085.510509
701.088805,-17024.736666,-1776.494261,-75537.016103
701.091377,-3701.029710,2664.741391,-74464.482406
701.093948,-9918.759623,6217.729913,-76915.987999
701.096520,10658.965565,-4737.318029,-75077.358804
701.099092,592.164754,-6661.853478,-75843.454302
701.101664,11843.295072,5625.565159,-72012.976812
701.104236,148.041188,3849.070898,-74617.701505
701.106810,-17468.860231,-3701.029710,-76456.330700
701.109383,10066.800811,-444.123565,-74158.044206
701.111957,-2812.782580,1776.494261,-75537.016103
701.114530,-10066.800811,2368.659014,-78754.617194
701.117104,-19689.478057,4145.153275,-76762.768900
701.119678,-8438.347739,16728.654289,-73391.948708
701.122251,27831.743419,6513.812290,-71093.662214
701.124825,27535.661042,-8290.306550,-73391.948708
701.127399,-444.123565,888.247130,-73851.606007
701.129972,-1924.535449,296.082377,-75537.016103
701.132546,6365.771101,2220.617826,-75077.358804
701.135119,-12139.377449,1036.288319,-74158.044206
701.137693,-7550.100608,-3701.029710,-76915.987999
701.140267,-19097.313304,1332.370696,-75843.454302
701.142840,25463.084405,-1480.411884,-73085.510509
701.145414,-3997.112087,888.247130,-76149.892501
701.147987,-9326.594869,-3256.906145,-76762.768900
701.150561,-1036.288319,9030.512492,-73698.386908
701.153135,6661.853478,12287.418637,-71859.757712
701.155708,7254.018232,-6069.688724,-76149.892501
701.158282,-8290.306550,-1184.329507,-76149.892501
701.160855,12583.501014,-6217.729913,-73851.606007
701.163429,-6661.853478,6809.894666,-76149.892501
701.166003,-20281.642811,-296.082377,-77682.083497
701.168576,13027.624579,-7105.977043,-74158.044206
701.171150,10214.842000,1924.535449,-75230.577904
701.173724,1184.329507,296.082377,-77528.864398
701.176297,15396.283594,1036.288319,-75383.797003
701.178871,2368.659014,5773.606348,-74004.825107
701.181444,1776.494261,-5033.400406,-76303.111601
701.184018,3849.070898,6809.894666,-74770.920605
701.186592,7105.977043,-3256.906145,-74924.139704
701.189165,-8290.306550,4589.276840,-77069.207099
701.191739,5773.606348,-592.164754,-75690.235202
701.194312,7846.182985,1776.494261,-73085.510509
701.196886,17172.777854,4441.235652,-74924.139704
701.199460,148.041188,-9178.553681,-76149.892501
701.202033,-3997.112087,-7846.182985,-78754.617194
701.204607,-44412.356520,10955.047942,-77835.302597
701.207180,51222.251186,-4145.153275,-69408.252119
701.209756,-20725.766376,-4885.359217,-79520.712692
701.212331,-148.041188,6809.894666,-73391.948708
701.214906,43376.068201,-8882.471304,-69101.813920
701.217482,0.000000,7994.224174,-76915.987999
701.220057,-1628.453072,-7550.100608,-77682.083497
701.222632,-1184.329507,4441.235652,-75077.358804
701.225208,19245.354492,1776.494261,-75537.016103
701.227783,7105.977043,8290.306550,-73085.510509
701.230358,12139.377449,-3256.906145,-77375.645298
701.232933,-21910.095883,5329.482782,-78141.740796
701.235509,13767.830521,2812.782580,-74924.139704
701.238084,7254.018232,7698.141797,-74311.263306
701.240659,3849.070898,-14508.036463,-77528.864398
701.243235,-7550.100608,-1036.288319,-75077.358804
701.245810,30940.608376,6069.688724,-72472.634111
701.248385,-21465.972318,4293.194464,-77988.521696
701.250961,-19245.354492,-8882.471304,-78601.398095
701.253536,-24870.919651,888.247130,-78754.617194
701.256111,7254.018232,3997.112087,-74924.139704
701.258686,-7402.059420,-296.082377,-74770.920605
701.261262,10510.924376,4441.235652,-74617.701505
701.263837,-14804.118840,-6513.812290,-77528.864398
701.266412,2072.576638,-5773.606348,-75537.016103
701.268988,5477.523971,3108.864956,-72779.072310
701.271563,6513.812290,5625.565159,-74924.139704
701.274138,-15248.242405,-2072.576638,-77069.207099
701.276714,4885.359217,740.205942,-75537.016103
701.279289,-14211.954086,3701.029710,-74924.139704
701.281864,-4885.359217,1924.535449,-76303.111601
701.284439,-6217.729913,10214.842000,-71553.319513
701.287015,-9474.636058,17320.819043,-71859.757712
701.289590,54183.074954,2368.659014,-67263.184724
701.292165,43524.109390,-22502.260637,-76609.549800
701.294741,-81126.571243,-10066.800811,-86109.133975
701.297316,-49593.798114,30644.525999,-80440.027290
701.299891,34197.514520,2072.576638,-68642.156621
701.302467,38638.750172,444.123565,-69867.909418
701.305042,-51222.251186,-9770.718434,-82738.313784
701.307617,-32569.061448,4145.153275,-79827.150892
701.310192,25907.207970,4441.235652,-71246.881314
701.312702,18505.148550,1924.535449,-74004.825107
701.315212,-30496.484810,-9474.636058,-75843.454302
701.317721,-38194.626607,2960.823768,-78754.617194
701.320231,10066.800811,7402.059420,-74770.920605
701.322741,-8882.471304,-2516.700203,-75077.358804
701.325250,17764.942608,-8734.430116,-74158.044206
701.327760,-16876.695478,1776.494261,-78294.959896
701.330270,-19689.478057,3849.070898,-78448.178995
701.332779,5773.606348,-6513.812290,-74158.044206
701.335289,19097.313304,-2664.741391,-73238.729609
701.337798,-8882.471304,1924.535449,-77528.864398
701.340308,15396.283594,-740.205942,-74464.482406
701.342818,-2960.823768,5773.606348,-74311.263306
701.345327,10214.842000,-5773.606348,-75843.454302
701.347837,-13175.665768,-4293.194464,-77682.083497
701.350347,21614.013506,-3404.947333,-73238.729609
701.352856,-8290.306550,4293.194464,-76149.892501
701.355366,4885.359217,4145.153275,-76149.892501
701.357876,5181.441594,2220.617826,-74617.701505
701.360385,17468.860231,4589.276840,-74617.701505
701.362895,-14063.912898,-444.123565,-81052.903688
701.365405,-37602.461854,3701.029710,-80286.808190
701.367914,-7994.224174,13323.706956,-73545.167808
701.370424,33605.349767,4589.276840,-70940.443115
701.372933,-2960.823768,3997.112087,-76303.111601
701.375443,41007.409187,1924.535449,-70940.443115
701.377953,22354.219448,-2812.782580,-72472.634111
701.380462,7994.224174,5329.482782,-73851.606007
701.382972,10214.842000,-888.247130,-73545.167808
701.385482,8290.306550,4145.153275,-74464.482406
701.387991,10658.965565,-592.164754,-75843.454302
701.390501,7994.224174,2812.782580,-76762.768900
701.393011,-15248.242405,-2516.700203,-77835.302597
701.395520,1184.329507,10955.047942,-74617.701505
701.398030,5773.606348,4589.276840,-74311.263306
701.400540,11695.253884,-7105.977043,-74617.701505
701.403049,-148.041188,-6069.688724,-75690.235202
701.405559,22650.301825,5773.606348,-74924.139704
701.408068,-23538.548956,1628.453072,-75843.454302
701.410578,-18505.148550,-1924.535449,-77528.864398
701.413105,-10658.965565,2516.700203,-76149.892501
701.415632,-6365.771101,3997.112087,-75077.358804
701.418159,-3997.112087,444.123565,-74464.482406
701.420686,7994.224174,6069.688724,-75537.016103
701.423213,-9178.553681,-2368.659014,-77069.207099
701.425739,-5181.441594,-6365.771101,-75996.673402
701.428266,13767.830521,5033.400406,-71553.319513
701.430793,3997.112087,2220.617826,-74770.920605
701.433320,-10214.842000,10510.924376,-76762.768900
701.435847,-13175.665768,-11251.130318,-80593.246390
701.438374,-25315.043216,5921.647536,-79061.055394
701.440901,-7402.059420,1776.494261,-75537.016103
701.443428,3849.070898,15988.448347,-71400.100414
701.445955,38342.667796,2368.659014,-70021.128517
701.448481,18801.230927,-9178.553681,-75383.797003
701.451008,-35529.885216,-148.041188,-81818.999186
701.453535,-40415.244433,17616.901420,-78141.740796
701.456062,24870.919651,1184.329507,-71246.881314
701.458589,21021.848753,-2516.700203,-70021.128517
701.461116,-28571.949361,-11103.089130,-79827.150892
701.463643,-35233.802839,1924.535449,-78754.617194
701.466170,19541.436869,3997.112087,-72779.072310
701.468697,7105.977043,2516.700203,-74004.825107
701.471223,10214.842000,1480.411884,-75690.235202
701.473750,-35529.885216,3108.864956,-78294.959896
701.476277,11399.171507,592.164754,-74311.263306
701.478804,5477.523971,-296.082377,-71706.538613
701.481331,12731.542202,740.205942,-75690.235202
701.483858,-34197.514520,4737.318029,-81665.780087
701.486385,-4145.153275,-1332.370696,-76609.549800
701.488912,36418.132346,11399.171507,-69408.252119
701.491439,6513.812290,0.000000,-75690.235202
701.493965,-1628.453072,-4885.359217,-75690.235202
701.496492,18949.272115,7402.059420,-72319.415011
701.499019,14952.160028,1184.329507,-74311.263306
701.501546,10066.800811,1776.494261,-75537.016103
701.504073,1480.411884,1036.288319,-76149.892501
701.506600,-4589.276840,592.164754,-75537.016103
701.509127,-7402.059420,4441.235652,-76303.111601
701.511654,15100.201217,-2072.576638,-71706.538613
701.514194,19097.313304,-4885.359217,-73238.729609
701.516735,4293.194464,4737.318029,-77682.083497
701.519275,-1332.370696,6809.894666,-75230.577904
701.521816,30792.567187,4737.318029,-70940.443115
701.524357,23834.631332,-2516.700203,-70940.443115
701.526897,-5181.441594,-1036.288319,-78141.740796
701.529438,10362.883188,148.041188,-76149.892501
701.531978,21910.095883,-3552.988522,-73085.510509
701.534519,10807.006753,1628.453072,-75383.797003
701.537059,5921.647536,2960.823768,-74464.482406
701.539600,13471.748144,-2072.576638,-73391.948708
701.542140,13767.830521,1480.411884,-74158.044206
701.544681,-5329.482782,-3552.988522,-77988.521696
701.547222,8142.265362,1628.453072,-75537.016103
701.549762,9770.718434,7402.059420,-73238.729609
701.552303,19541.436869,-7402.059420,-72779.072310
701.554843,-592.164754,-6069.688724,-75077.358804
701.557384,11991.336260,14656.077652,-74617.701505
701.559924,-888.247130,-4589.276840,-78601.398095
701.562465,-22502.260637,8142.265362,-79367.493593
701.565005,11251.130318,-4293.194464,-73085.510509
701.567546,4589.276840,6513.812290,-71859.757712
701.570087,-12435.459826,-3108.864956,-75077.358804
701.572627,-6661.853478,-2664.741391,-76149.892501
701.575168,-13471.748144,7846.182985,-77375.645298
701.577708,15692.365970,-2516.700203,-74158.044206
701.580249,7994.224174,0.000000,-73238.729609
701.582789,1332.370696,5921.647536,-74311.263306
701.585330,-14508.036463,-4885.359217,-75996.673402
701.587871,4441.235652,1184.329507,-74617.701505
701.590411,-2072.576638,7402.059420,-74464.482406
701.592952,2812.782580,1628.453072,-72625.853210
701.595492,-4589.276840,-2960.823768,-76762.768900
701.598033,-5773.606348,-18653.189738,-78294.959896
701.600573,-59068.434172,11251.130318,-82125.437386
701.603114,-11399.171507,15396.283594,-71400.100414
701.605654,83199.147881,-17172.777854,-67109.965625
701.608195,13323.706956,-13323.706956,-77835.302597
701.610736,-64397.916954,-1628.453072,-85343.038477
701.613276,-42783.903448,24870.919651,-78601.398095
701.615769,49741.839302,9770.718434,-65424.555529
701.618261,18061.024985,-9622.677246,-72012.976812
701.620753,-39675.038491,-9622.677246,-82431.875585
701.623246,-30792.567187,-7402.059420,-81512.560987
701.625738,23094.425390,-2812.782580,-72012.976812
701.628231,12435.459826,3849.070898,-72625.853210
701.630723,-8734.430116,9178.553681,-76303.111601
701.633215,-36122.049970,-15544.324782,-79980.369991
701.635708,28719.990550,1480.411884,-70940.443115
701.638200,14063.912898,1332.370696,-75537.016103
701.640693,-31828.855506,3108.864956,-82431.875585
701.643185,-13619.789333,-12435.459826,-77375.645298
701.645678,28423.908173,444.123565,-69561.471218
701.648170,6957.935855,-2812.782580,-75230.577904
701.650662,8734.430116,-2072.576638,-76609.549800
701.653155,-13175.665768,9918.759623,-76149.892501
701.655647,4885.359217,2812.782580,-76456.330700
701.658140,-6661.853478,740.205942,-75843.454302
701.660632,19393.395680,-4737.318029,-73238.729609
701.663124,-11991.336260,4145.153275,-76149.892501
701.665617,5477.523971,1184.329507,-74924.139704
701.668109,6365.771101,5477.523971,-76149.892501
701.670602,11547.212695,-1332.370696,-76456.330700
701.673094,-34345.555709,4589.276840,-80593.246390
701.675587,148.041188,11991.336260,-71859.757712
701.678079,34197.514520,-1924.535449,-68642.156621
701.680571,31680.814318,-10807.006753,-72932.291410
701.683064,15988.448347,-10510.924376,-76915.987999
701.685556,4441.235652,-1924.535449,-77069.207099
701.688049,5329.482782,7994.224174,-74311.263306
701.690541,9622.677246,9622.677246,-72472.634111
701.693033,23834.631332,2220.617826,-72932.291410
701.695526,-4145.153275,-5625.565159,-77528.864398
701.698018,444.123565,2220.617826,-76762.768900
701.700511,9178.553681,14063.912898,-74617.701505
701.703003,25611.125593,-2072.576638,-73851.606007
701.705496,-5773.606348,-9030.512492,-76303.111601
701.707988,5625.565159,15248.242405,-73238.729609
701.710480,9918.759623,-2664.741391,-75690.235202
701.712973,8734.430116,6365.771101,-75383.797003
701.715487,7698.141797,-12879.583391,-75383.797003
701.718002,-5181.441594,888.247130,-74617.701505
701.720516,-10362.883188,-3108.864956,-73698.386908
701.723031,3552.988522,3849.070898,-72932.291410
701.725545,-15248.242405,2072.576638,-78141.740796
701.728060,7846.182985,-8438.347739,-75383.797003
701.730574,3256.906145,4145.153275,-74924.139704
701.733088,5477.523971,11695.253884,-74158.044206
701.735603,-11695.253884,-11103.089130,-76609.549800
701.738117,7105.977043,888.247130,-73851.606007
701.740632,-2812.782580,10807.006753,-74004.825107
701.743146,-14211.954086,2812.782580,-78754.617194
701.745661,-4737.318029,-2368.659014,-78141.740796
701.748175,-8734.430116,-8586.388927,-76915.987999
701.750690,-16432.571912,7550.100608,-77375.645298
701.753204,592.164754,1332.370696,-74311.263306
701.755719,-2516.700203,-11991.336260,-75843.454302
701.758233,-18061.024985,2812.782580,-78754.617194
701.760748,-25018.960840,-3404.947333,-76303.111601
701.763262,13175.665768,3404.947333,-71553.319513
701.765776,-1036.288319,4589.276840,-74004.825107
701.768291,-19097.313304,-3701.029710,-78141.740796
701.770805,-10955.047942,-148.041188,-75537.016103
701.773320,19393.395680,15100.201217,-72472.634111
701.775834,-6217.729913,8290.306550,-75843.454302
701.778349,-296.082377,3256.906145,-78448.178995
701.780863,-20281.642811,-12879.583391,-75843.454302
701.783378,19985.560434,3552.988522,-70480.785816
701.785892,-17320.819043,5773.606348,-77988.521696
701.788407,-27979.784608,-1184.329507,-80593.246390
701.790921,27535.661042,8290.306550,-73391.948708
701.793436,13471.748144,3552.988522,-74464.482406
701.795950,13471.748144,-3997.112087,-75077.358804
701.798464,9770.718434,8438.347739,-73391.948708
701.800979,9918.759623,1480.411884,-73085.510509
701.803493,11991.336260,-1776.494261,-74464.482406
701.806008,12731.542202,6365.771101,-75537.016103
701.808522,-5477.523971,-1628.453072,-77835.302597
701.811037,-11103.089130,5921.647536,-75996.673402
701.813551,19689.478057,-3701.029710,-72625.853210
701.816084,16876.695478,444.123565,-73085.510509
701.818616,-1480.411884,-1628.453072,-76915.987999
701.821148,9326.594869,16728.654289,-72166.195912
701.823681,59660.598925,-5625.565159,-67569.622924
701.826213,4737.318029,-6217.729913,-79827.150892
701.828746,-66026.370026,19541.436869,-82585.094684
701.831278,15840.407159,20725.766376,-68335.718422
701.833810,47965.345042,-2960.823768,-71553.319513
701.836343,33309.267390,-6513.812290,-72012.976812
701.838875,444.123565,-13175.665768,-78141.740796
701.841407,-28127.825796,-2960.823768,-79061.055394
701.843940,26499.372724,5033.400406,-72932.291410
701.846472,-148.041188,-888.247130,-75383.797003
701.849005,1924.535449,-444.123565,-77375.645298
701.851537,-17764.942608,9030.512492,-77069.207099
701.854069,14952.160028,-7698.141797,-74770.920605
701.856602,4589.276840,-9474.636058,-72625.853210
701.859134,21614.013506,-444.123565,-72932.291410
701.861666,-30792.567187,3108.864956,-78141.740796
701.864199,-8142.265362,-2220.617826,-76456.330700
701.866731,7105.977043,296.082377,-77528.864398
701.869264,3552.988522,2072.576638,-74464.482406
701.871796,-12287.418637,1924.535449,-76149.892501
701.874328,-2960.823768,10807.006753,-75996.673402
701.876861,-9622.677246,-2220.617826,-76762.768900
701.879393,3256.906145,-7254.018232,-75843.454302
701.881926,3404.947333,5773.606348,-74311.263306
701.884458,-7550.100608,8142.265362,-77528.864398
701.886990,-2664.741391,4293.194464,-76149.892501
701.889523,4441.235652,-5773.606348,-74770.920605
701.892055,-10955.047942,6365.771101,-75230.577904
701.894587,25759.166782,-5477.523971,-71706.538613
701.897120,25018.960840,444.123565,-71706.538613
701.899652,27239.578666,-6513.812290,-72932.291410
701.902185,-9030.512492,-11103.089130,-77988.521696
701.904717,-43820.191766,19097.313304,-79214.274493
701.907249,1628.453072,10362.883188,-74617.701505
701.909782,-4145.153275,2664.741391,-74158.044206
701.912314,-7846.182985,-740.205942,-74924.139704
701.914846,-17912.983796,2664.741391,-76456.330700
701.917392,6217.729913,-4441.235652,-73698.386908
701.919937,740.205942,-296.082377,-74924.139704
701.922483,-15988.448347,11251.130318,-76915.987999
701.925028,-1480.411884,1184.329507,-77069.207099
701.927573,-3256.906145,1480.411884,-73085.510509
701.930119,20873.807564,-1628.453072,-70327.566716
701.932664,-10955.047942,4885.359217,-76915.987999
701.935210,-40859.367998,-2516.700203,-81512.560987
701.937755,14063.912898,15396.283594,-73698.386908
701.940300,22650.301825,-740.205942,-72319.415011
701.942846,3849.070898,-5033.400406,-75843.454302
701.945391,8290.306550,2220.617826,-73238.729609
701.947937,10066.800811,8882.471304,-72319.415011
701.950482,16432.571912,-3849.070898,-74924.139704
701.953027,11695.253884,4441.235652,-76456.330700
701.955573,-9622.677246,2516.700203,-76762.768900
701.958118,-8734.430116,4441.235652,-76915.987999
701.960664,20133.601622,0.000000,-72932.291410
701.963209,13619.789333,-3256.906145,-75537.016103
701.965754,-3108.864956,888.247130,-77988.521696
701.968300,-9474.636058,11843.295072,-74924.139704
701.970845,63065.546258,-7254.018232,-69714.690318
701.973391,-14063.912898,2516.700203,-77835.302597
701.975936,43376.068201,-3552.988522,-71706.538613
701.978481,1776.494261,-1184.329507,-74617.701505
701.981027,9326.594869,3256.906145,-76762.768900
701.983572,-2072.576638,-2664.741391,-75537.016103
701.986118,20429.683999,2812.782580,-73698.386908
701.988663,-6069.688724,-4885.359217,-77682.083497
701.991208,-16136.489536,8586.388927,-77988.521696
701.993754,-1628.453072,4885.359217,-76915.987999
701.996299,7402.059420,13471.748144,-73238.729609
701.998845,1776.494261,-14211.954086,-75996.673402
702.001390,-3849.070898,11843.295072,-72779.072310
702.003935,10214.842000,-6513.812290,-76609.549800
702.006481,-24426.796086,12731.542202,-75537.016103
702.009026,30348.443622,-7846.182985,-70940.443115
702.011572,-296.082377,9474.636058,-72779.072310
702.014117,-16432.571912,-3701.029710,-74924.139704
702.016662,-10066.800811,0.000000,-75383.797003
702.019167,-9326.594869,4737.318029,-76149.892501
702.021671,9770.718434,-6365.771101,-74311.263306
702.024175,6661.853478,4145.153275,-73085.510509
702.026679,7105.977043,7105.977043,-73391.948708
702.029184,-740.205942,-4737.318029,-74770.920605
702.031688,11251.130318,-2368.659014,-74004.825107
702.034192,-2368.659014,4441.235652,-76456.330700
702.036697,1036.288319,3701.029710,-77682.083497
702.039201,5477.523971,-19689.478057,-75383.797003
702.041705,6661.853478,-16284.530724,-76456.330700
702.044209,-13471.748144,2220.617826,-77988.521696
702.046714,-7105.977043,9030.512492,-77835.302597
702.049218,-15396.283594,4441.235652,-77375.645298
702.051722,-17468.860231,444.123565,-78294.959896
702.054227,-11547.212695,-6365.771101,-76762.768900
702.056731,-1184.329507,296.082377,-75230.577904
702.059235,-6069.688724,2368.659014,-74464.482406
702.061739,-16876.695478,888.247130,-77988.521696
702.064244,5921.647536,-10214.842000,-73238.729609
702.066748,444.123565,148.041188,-73851.606007
702.069252,2664.741391,6661.853478,-77835.302597
702.071757,-31532.773129,-9770.718434,-80133.589091
702.074261,19097.313304,-1036.288319,-72012.976812
702.076765,3404.947333,3701.029710,-73698.386908
702.079269,-30940.608376,1628.453072,-80440.027290
702.081774,-28868.031738,-12583.501014,-80746.465489
702.084278,16580.613101,740.205942,-74464.482406
702.086782,16580.613101,-4589.276840,-74311.263306
702.089287,15544.324782,-5921.647536,-75230.577904
702.091791,-18653.189738,4293.194464,-76762.768900
702.094295,5773.606348,7698.141797,-75077.358804
702.096799,11399.171507,-1184.329507,-76149.892501
702.099304,2368.659014,-2368.659014,-78141.740796
702.101808,-9030.512492,592.164754,-76149.892501
702.104312,12583.501014,3108.864956,-73545.167808
702.106816,17320.819043,-7846.182985,-73545.167808
702.109321,7550.100608,-5921.647536,-77375.645298
702.111825,-10214.842000,-3552.988522,-78294.959896
702.114329,-23390.507767,10066.800811,-77069.207099
702.116834,24722.878463,444.123565,-72625.853210
702.119359,-10955.047942,-5477.523971,-79214.274493
702.121885,-4589.276840,-8882.471304,-76915.987999
702.124410,1332.370696,444.123565,-74158.044206
702.126935,22354.219448,4441.235652,-72012.976812
702.129461,-2516.700203,-2516.700203,-75843.454302
702.131986,-1480.411884,3997.112087,-75690.235202
702.134511,12583.501014,11991.336260,-72932.291410
702.137037,29756.278868,-1480.411884,-75077.358804
702.139562,-21762.054695,-6957.935855,-78141.740796
702.142087,-8142.265362,2516.700203,-75690.235202
702.144613,6069.688724,-2664.741391,-77222.426198
702.147138,-11103.089130,16136.489536,-75230.577904
702.149663,24278.754898,-8882.471304,-72779.072310
702.152189,296.082377,-1480.411884,-75537.016103
702.154714,-14656.077652,740.205942,-77069.207099
702.157240,-8142.265362,1924.535449,-75230.577904
702.159765,-17320.819043,-444.123565,-77528.864398
702.162290,14063.912898,-5477.523971,-75383.797003
702.164816,-5477.523971,5181.441594,-76303.111601
702.167341,3256.906145,-1036.288319,-76609.549800
702.169866,-4589.276840,-8438.347739,-75537.016103
702.172392,13471.748144,5033.400406,-75537.016103
702.174917,1628.453072,7994.224174,-72472.634111
702.177442,5773.606348,11103.089130,-74158.044206
702.179968,29016.072926,-11399.171507,-74004.825107
702.182493,6957.935855,-12879.583391,-75537.016103
702.185018,-23242.466579,6809.894666,-75843.454302
702.187544,25315.043216,3108.864956,-70480.785816
702.190069,21762.054695,-9918.759623,-73545.167808
702.192594,-20281.642811,-7698.141797,-77222.426198
702.195120,-26499.372724,7105.977043,-77528.864398
702.197645,9326.594869,3849.070898,-72472.634111
702.200186,4145.153275,-5181.441594,-73238.729609
702.202726,-1036.288319,3552.988522,-74004.825107
702.205266,-23686.590144,7254.018232,-76915.987999
702.207807,7105.977043,2516.700203,-74311.263306
702.210347,14359.995275,-2812.782580,-71859.757712
702.212888,6957.935855,888.247130,-75230.577904
702.215428,-33753.390955,4589.276840,-81206.122788
702.217969,-444.123565,-592.164754,-75230.577904
702.220509,47373.180288,7402.059420,-69101.813920
702.223050,-5033.400406,4589.276840,-76303.111601
702.225590,3701.029710,-5625.565159,-76609.549800
702.228130,17024.736666,4293.194464,-73698.386908
702.230671,28719.990550,-10066.800811,-73391.948708
702.233211,16728.654289,-6957.935855,-74158.044206
702.235752,2368.659014,2072.576638,-76762.768900
702.238292,-6809.894666,5625.565159,-74924.139704
702.240833,16580.613101,-444.123565,-74464.482406
702.243373,3108.864956,-8882.471304,-76915.987999
702.245914,-4441.235652,1776.494261,-76456.330700
702.248454,-11103.089130,9030.512492,-76609.549800
702.250994,9474.636058,8142.265362,-72012.976812
702.253535,26943.496289,-10214.842000,-70940.443115
702.256075,3849.070898,-6513.812290,-77988.521696
702.258616,-28719.990550,9622.677246,-79367.493593
702.261156,17468.860231,10066.800811,-76303.111601
702.263697,17912.983796,6809.894666,-72472.634111
702.266237,33901.432144,-1332.370696,-70021.128517
702.268778,1184.329507,1036.288319,-76762.768900
702.271318,-16432.571912,3701.029710,-79061.055394
702.273858,5921.647536,9030.512492,-75383.797003
702.276399,35677.926404,2368.659014,-72166.195912
702.278939,-10362.883188,-5773.606348,-78754.617194
702.281480,-11843.295072,5921.647536,-77222.426198
702.284020,1332.370696,-148.041188,-77069.207099
702.286561,8290.306550,12435.459826,-73238.729609
702.289101,19837.519246,-9622.677246,-72472.634111
702.291642,-6661.853478,-592.164754,-77988.521696
702.294182,-12139.377449,-1924.535449,-77222.426198
702.296723,-9326.594869,-1332.370696,-76915.987999
702.299263,-15840.407159,3404.947333,-76149.892501
702.301816,18061.024985,-5773.606348,-73851.606007
702.304369,-6661.853478,4441.235652,-75383.797003
702.306923,5329.482782,592.164754,-75383.797003
702.309476,-2960.823768,-5921.647536,-76149.892501
702.312029,9770.718434,888.247130,-74617.701505
702.314582,-5625.565159,5181.441594,-74158.044206
702.317136,-2960.823768,8586.388927,-72625.853210
702.319689,28719.990550,296.082377,-71093.662214
702.322242,23834.631332,-3108.864956,-74924.139704
702.324795,-148.041188,888.247130,-76609.549800
702.327349,-45744.727216,12583.501014,-78448.178995
702.329902,16876.695478,6365.771101,-71859.757712
702.332455,19245.354492,-592.164754,-69714.690318
702.335008,-7698.141797,-7846.182985,-76149.892501
702.337561,-39378.956114,6217.729913,-79827.150892
702.340115,11251.130318,7254.018232,-74311.263306
702.342668,11103.089130,-6957.935855,-72472.634111
702.345221,-12879.583391,-5033.400406,-77375.645298
702.347774,-11547.212695,14063.912898,-77069.207099
702.350328,-10362.883188,-4589.276840,-76609.549800
702.352881,31976.896694,-3849.070898,-71553.319513
702.355434,-2368.659014,-6069.688724,-71400.100414
702.357987,-7994.224174,2072.576638,-77222.426198
702.360541,-22946.384202,-4145.153275,-79673.931792
702.363094,13175.665768,-2368.659014,-74464.482406
702.365647,14656.077652,-1776.494261,-75230.577904
702.368200,11695.253884,740.205942,-75537.016103
702.370753,-13619.789333,9474.636058,-76609.549800
702.373307,14359.995275,5773.606348,-74770.920605
702.375860,9918.759623,-1924.535449,-76915.987999
702.378413,-7698.141797,-1036.288319,-76915.987999
702.380966,-2516.700203,6513.812290,-74924.139704
702.383520,13471.748144,444.123565,-72472.634111
702.386073,-2368.659014,4293.194464,-75690.235202
702.388626,25907.207970,296.082377,-72166.195912
702.391179,17764.942608,-4885.359217,-72012.976812
702.393732,-10362.883188,3256.906145,-77988.521696
702.396286,-20429.683999,11251.130318,-76915.987999
702.398839,29904.320057,6661.853478,-71859.757712
702.401392,27831.743419,-1332.370696,-71859.757712
702.403954,10807.006753,1480.411884,-75077.358804
702.406517,1924.535449,3849.070898,-77069.207099
702.409079,2960.823768,2812.782580,-73545.167808
702.411641,12583.501014,8586.388927,-72166.195912
702.414203,30940.608376,1036.288319,-73851.606007
702.416766,-6217.729913,-5329.482782,-78448.178995
702.419328,1184.329507,6661.853478,-75843.454302
702.421890,8438.347739,-6809.894666,-77069.207099
702.424452,-12287.418637,9030.512492,-75996.673402
702.427015,13323.706956,296.082377,-72012.976812
702.429577,8142.265362,592.164754,-74770.920605
702.432139,-12879.583391,-2664.741391,-76609.549800
702.434702,-1184.329507,-1776.494261,-76149.892501
702.437264,-21169.889941,-148.041188,-76456.330700
702.439826,14508.036463,-2664.741391,-73698.386908
702.442388,-10658.965565,4293.194464,-75230.577904
702.444951,444.123565,-1036.288319,-76915.987999
702.447513,-6513.812290,-11547.212695,-77069.207099
702.450075,6069.688724,-740.205942,-75230.577904
702.452637,-6957.935855,-444.123565,-74770.920605
702.455200,-20725.766376,5625.565159,-78754.617194
702.457762,-35529.885216,6069.688724,-77682.083497
702.460324,12583.501014,-2220.617826,-74158.044206
702.462886,18949.272115,-7105.977043,-76915.987999
702.465449,-43079.985824,7105.977043,-78601.398095
702.468011,-12731.542202,7994.224174,-74311.263306
702.470573,13915.871710,6809.894666,-70634.004916
702.473135,6809.894666,-740.205942,-74464.482406
702.475698,-40859.367998,-3404.947333,-81206.122788
702.478260,2072.576638,8290.306550,-76762.768900
702.480822,-15692.365970,7846.182985,-75537.016103
702.483384,19393.395680,2664.741391,-73545.167808
702.485947,-13027.624579,-8142.265362,-75077.358804
702.488509,14804.118840,-1776.494261,-74004.825107
702.491071,-17468.860231,9326.594869,-78448.178995
702.493633,-3997.112087,2664.741391,-76762.768900
702.496196,32272.979071,5181.441594,-72625.853210
702.498758,-888.247130,4293.194464,-76149.892501
702.501320,5181.441594,-592.164754,-75077.358804
702.503882,12583.501014,7698.141797,-74158.044206
702.506452,26499.372724,-11843.295072,-74464.482406
702.509022,296.082377,-4441.235652,-75690.235202
702.511591,2072.576638,444.123565,-74617.701505
702.514161,740.205942,8586.388927,-73698.386908
702.516731,12731.542202,-2220.617826,-74311.263306
702.519300,5773.606348,-6661.853478,-74158.044206
702.521870,6809.894666,5477.523971,-73085.510509
702.524440,34937.720462,5329.482782,-71093.662214
702.527009,5329.482782,-3552.988522,-74924.139704
702.529579,-3552.988522,2960.823768,-74311.263306
702.532149,16284.530724,2072.576638,-70634.004916
702.534718,20725.766376,-2516.700203,-72625.853210
702.537288,-8142.265362,5773.606348,-78601.398095
702.539857,592.164754,592.164754,-76149.892501
702.542427,25907.207970,2516.700203,-74464.482406
702.544997,9770.718434,2812.782580,-74004.825107
702.547566,-6217.729913,2220.617826,-76915.987999
702.550136,2516.700203,3256.906145,-76149.892501
702.552706,13915.871710,-888.247130,-74617.701505
702.555275,7846.182985,3404.947333,-75230.577904
702.557845,-444.123565,-7402.059420,-79061.055394
702.560415,-23982.672521,6217.729913,-77528.864398
702.562984,32569.061448,2960.823768,-69408.252119
702.565554,7105.977043,-1184.329507,-74311.263306
702.568124,-20873.807564,-2664.741391,-78601.398095
702.570693,-14063.912898,-4589.276840,-78448.178995
702.573263,-10807.006753,8734.430116,-76149.892501
702.575833,18949.272115,-6513.812290,-72625.853210
702.578402,3404.947333,4589.276840,-72625.853210
702.580972,-2812.782580,1776.494261,-76915.987999
702.583541,-2664.741391,-4737.318029,-76915.987999
702.586111,6365.771101,-740.205942,-75230.577904
702.588681,2960.823768,2220.617826,-73851.606007
702.591250,9918.759623,-7105.977043,-74158.044206
702.593820,-25611.125593,-6809.894666,-79061.055394
702.596390,-19541.436869,-3404.947333,-78601.398095
702.598959,8586.388927,-4145.153275,-77069.207099
702.601529,-20429.683999,2220.617826,-77222.426198
702.604099,-10066.800811,-888.247130,-75077.358804
702.606668,-11547.212695,1924.535449,-74311.263306
702.609243,-3108.864956,-3404.947333,-73238.729609
702.611817,-2220.617826,2664.741391,-76303.111601
702.614391,-2072.576638,296.082377,-76149.892501
702.616965,-740.205942,-6809.894666,-75690.235202
702.619540,14359.995275,13175.665768,-72625.853210
702.622114,-16432.571912,-6365.771101,-77069.207099
702.624688,9030.512492,1776.494261,-74311.263306
702.627262,14211.954086,-4885.359217,-73851.606007
702.629837,-8586.388927,8438.347739,-77988.521696
702.632411,-13915.871710,-8734.430116,-78907.836294
702.634985,13915.871710,-2220.617826,-74004.825107
702.637559,11251.130318,-2516.700203,-74004.825107
702.640134,18653.189738,-5773.606348,-75383.797003
702.642708,-20133.601622,7550.100608,-77528.864398
702.645282,3849.070898,10066.800811,-77069.207099
702.647856,7698.141797,-4293.194464,-77528.864398
702.650431,-2072.576638,0.000000,-74311.263306
702.653005,9918.759623,2072.576638,-71859.757712
702.655579,10066.800811,592.164754,-74004.825107
702.658153,24722.878463,-16284.530724,-77222.426198
702.660728,-44264.315332,4737.318029,-82278.656485
702.663302,1776.494261,15248.242405,-72625.853210
702.665876,52998.745447,-19245.354492,-70940.443115
702.668450,15100.201217,-5921.647536,-72319.415011
702.671025,-8882.471304,-6661.853478,-82431.875585
702.673599,-32865.143825,148.041188,-78601.398095
702.676173,43968.232955,3256.906145,-71400.100414
702.678747,17172.777854,1924.535449,-73851.606007
702.681322,-4589.276840,3701.029710,-77682.083497
702.683896,-10066.800811,-444.123565,-75996.673402
702.686470,32865.143825,-2368.659014,-71246.881314
702.689044,2220.617826,-740.205942,-74924.139704
702.691619,-7698.141797,-2368.659014,-80286.808190
702.694193,-19393.395680,6809.894666,-76456.330700
702.696767,41747.615129,7105.977043,-68335.718422
702.699341,14359.995275,-888.247130,-71400.100414
702.701916,-6957.935855,740.205942,-74924.139704
702.704490,-17024.736666,-10214.842000,-78601.398095
702.707064,-13767.830521,6217.729913,-77222.426198
702.709638,19837.519246,-10362.883188,-73238.729609
702.712216,-5033.400406,9326.594869,-73085.510509
702.714794,-2072.576638,-2072.576638,-75230.577904
702.717373,-9326.594869,-6217.729913,-76609.549800
702.719951,7698.141797,-3701.029710,-74311.263306
702.722529,-9030.512492,14063.912898,-74617.701505
702.725107,8734.430116,4589.276840,-72779.072310
702.727685,21317.931130,-5033.400406,-72932.291410
702.730263,1332.370696,-2664.741391,-70787.224015
702.732841,14211.954086,-8882.471304,-74770.920605
702.735419,-25907.207970,7698.141797,-77682.083497
702.737997,-7994.224174,2960.823768,-77222.426198
702.740575,-592.164754,5033.400406,-73238.729609
702.743154,4145.153275,-888.247130,-74617.701505
702.745732,-16136.489536,-3849.070898,-79061.055394
702.748310,-17024.736666,11843.295072,-77528.864398
702.750888,10955.047942,1184.329507,-74617.701505
702.753466,6513.812290,-592.164754,-73238.729609
702.756044,2220.617826,-5329.482782,-76609.549800
702.758622,-15988.448347,9178.553681,-78754.617194
702.761200,-20873.807564,2368.659014,-79214.274493
702.763778,28571.949361,11843.295072,-73238.729609
702.766356,8734.430116,-2516.700203,-75383.797003
702.768935,2664.741391,5329.482782,-75077.358804
702.771513,8438.347739,6513.812290,-74770.920605
702.774091,25907.207970,-9474.636058,-72932.291410
702.776669,12731.542202,-8586.388927,-74004.825107
702.779247,-8586.388927,8290.306550,-76303.111601
702.781825,4885.359217,4145.153275,-75077.358804
702.784403,-7698.141797,-5033.400406,-77222.426198
702.786981,3849.070898,-3701.029710,-73238.729609
702.789559,-10066.800811,9622.677246,-77528.864398
702.792137,-45300.603650,5477.523971,-81512.560987
702.794715,-40119.162056,-2368.659014,-84270.504780
702.797294,-36270.091158,10066.800811,-76456.330700
702.799872,39230.914926,2220.617826,-64505.240932
702.802450,25759.166782,-296.082377,-73698.386908
702.805028,-24722.878463,-13175.665768,-82431.875585
702.807606,2812.782580,1924.535449,-77682.083497
702.810184,11991.336260,13027.624579,-74004.825107
702.812762,22354.219448,7402.059420,-72319.415011
702.815300,11991.336260,-296.082377,-74158.044206
702.817837,9918.759623,-7402.059420,-75996.673402
702.820374,592.164754,4441.235652,-77069.207099
702.822912,12435.459826,-3701.029710,-77988.521696
702.825449,-24574.837274,9326.594869,-77375.645298
702.827986,12731.542202,2220.617826,-72472.634111
702.830524,14656.077652,-1036.288319,-72932.291410
702.833061,-10955.047942,-444.123565,-77528.864398
702.835598,-15248.242405,-5625.565159,-79520.712692
702.838136,-16284.530724,-2664.741391,-78907.836294
702.840673,10362.883188,2516.700203,-73851.606007
702.843210,-10510.924376,7402.059420,-76303.111601
702.845748,-10510.924376,-4145.153275,-77069.207099
702.848285,148.041188,-9178.553681,-75537.016103
702.850822,4885.359217,5625.565159,-75383.797003
702.853360,-17024.736666,6365.771101,-77835.302597
702.855897,-35677.926404,4589.276840,-79673.931792
702.858435,-6069.688724,-3256.906145,-75690.235202
702.860972,21169.889941,-148.041188,-70021.128517
702.863509,22058.137072,-5033.400406,-73545.167808
702.866047,-26055.249158,-3552.988522,-78141.740796
702.868584,-18357.107362,8734.430116,-77375.645298
702.871121,-1332.370696,6513.812290,-72625.853210
702.873659,8290.306550,-740.205942,-74158.044206
702.876196,-15840.407159,-12287.418637,-77988.521696
702.878733,-15544.324782,3404.947333,-76915.987999
702.881271,1332.370696,10214.842000,-74770.920605
702.883808,-3997.112087,-5033.400406,-75537.016103
702.886345,20133.601622,-3552.988522,-72472.634111
702.888883,13915.871710,-1776.494261,-74158.044206
702.891420,-25463.084405,6069.688724,-78907.836294
702.893957,2368.659014,-1480.411884,-76762.768900
702.896495,8290.306550,-444.123565,-74004.825107
702.899032,8438.347739,-2960.823768,-75077.358804
702.901570,6957.935855,7105.977043,-74464.482406
702.904107,14508.036463,3552.988522,-73085.510509
702.906644,23390.507767,-5033.400406,-74158.044206
702.909182,1480.411884,-2072.576638,-75690.235202
702.911719,7698.141797,5329.482782,-75230.577904
702.914256,-4441.235652,-740.205942,-76915.987999
702.916805,-3849.070898,-7698.141797,-78907.836294
702.919353,-31236.690752,-592.164754,-79980.369991
702.921902,148.041188,8882.471304,-73391.948708
702.924450,36566.173535,-10955.047942,-72319.415011
702.926999,-7402.059420,-8290.306550,-80593.246390
702.929547,-37750.503042,4589.276840,-81665.780087
702.932096,7254.018232,6957.935855,-72166.195912
702.934644,45892.768404,4737.318029,-70174.347617
702.937192,13471.748144,-4293.194464,-76456.330700
702.939741,-10658.965565,-148.041188,-77988.521696
702.942289,23686.590144,-3108.864956,-73545.167808
702.944838,12139.377449,1036.288319,-74004.825107
702.947386,16728.654289,1332.370696,-74770.920605
702.949935,-18801.230927,-10658.965565,-79214.274493
702.952483,3849.070898,3404.947333,-75230.577904
702.955032,26499.372724,7846.182985,-70174.347617
702.957580,-9326.594869,-4885.359217,-76303.111601
702.960129,-20577.725188,444.123565,-78907.836294
702.962677,-7105.977043,1332.370696,-76609.549800
702.965226,4589.276840,8882.471304,-74004.825107
702.967774,592.164754,11103.089130,-75383.797003
702.970322,-12879.583391,148.041188,-76915.987999
702.972871,-5477.523971,-4293.194464,-74158.044206
702.975419,13027.624579,1628.453072,-71706.538613
702.977968,12139.377449,3404.947333,-74617.701505
702.980516,-5033.400406,5477.523971,-75843.454302
702.983065,-35233.802839,-2960.823768,-80593.246390
702.985613,-25907.207970,7846.182985,-72166.195912
702.988162,84383.477388,-5773.606348,-65118.117330
702.990710,-296.082377,-2812.782580,-76762.768900
702.993259,-63953.793389,3849.070898,-83044.751983
702.995807,-16284.530724,20133.601622,-74770.920605
702.998356,41895.656317,1776.494261,-68488.937521
703.000904,-6217.729913,-11251.130318,-74924.139704
703.003452,-31532.773129,-6957.935855,-79520.712692
703.006001,-2220.617826,-296.082377,-74617.701505
703.008549,20577.725188,15100.201217,-71400.100414
703.011098,-2664.741391,-8586.388927,-77069.207099
703.013646,-12139.377449,1036.288319,-76762.768900
703.016195,15988.448347,-6069.688724,-73085.510509
703.018753,6661.853478,7254.018232,-74924.139704
703.021311,-10362.883188,-6217.729913,-78601.398095
703.023869,2368.659014,-3108.864956,-76609.549800
703.026427,17912.983796,-7254.018232,-74464.482406
703.028985,11991.336260,9918.759623,-74004.825107
703.031542,-1332.370696,5477.523971,-76456.330700
703.034100,16284.530724,-740.205942,-75383.797003
703.036658,16432.571912,-6661.853478,-74770.920605
703.039216,15396.283594,-1480.411884,-73698.386908
703.041774,4737.318029,2664.741391,-74770.920605
703.044332,-2072.576638,-3256.906145,-75537.016103
703.046890,39971.120868,-3849.070898,-71400.100414
703.049448,9326.594869,-2960.823768,-74617.701505
703.052006,-2072.576638,-1776.494261,-78294.959896
703.054564,-22502.260637,2812.782580,-80746.465489
703.057122,592.164754,6661.853478,-74311.263306
703.059680,17320.819043,-4589.276840,-74770.920605
703.062238,13323.706956,-3404.947333,-73391.948708
703.064796,6365.771101,-8586.388927,-76915.987999
703.067354,-1332.370696,10066.800811,-75843.454302
703.069912,-3849.070898,-4589.276840,-76609.549800
703.072470,-3701.029710,-148.041188,-76915.987999
703.075028,1184.329507,-2072.576638,-73698.386908
703.077586,25018.960840,2072.576638,-73391.948708
703.080144,-27091.537477,3108.864956,-78294.959896
703.082701,-11251.130318,-1036.288319,-76456.330700
703.085259,8290.306550,1628.453072,-73085.510509
703.087817,-2812.782580,740.205942,-73698.386908
703.090375,-2812.782580,0.000000,-75383.797003
703.092933,-19689.478057,-1480.411884,-77528.864398
703.095491,8882.471304,-9030.512492,-74770.920605
703.098049,-2368.659014,4589.276840,-73085.510509
703.100607,12583.501014,9918.759623,-71553.319513
703.103165,-7105.977043,2368.659014,-77222.426198
703.105723,148.041188,-7254.018232,-77375.645298
703.108281,-16284.530724,-10510.924376,-79827.150892
703.110839,-46040.809592,13767.830521,-81512.560987
703.113397,-17764.942608,15692.365970,-74770.920605
703.115955,55663.486838,-2072.576638,-66037.431928
703.118513,28868.031738,-15988.448347,-72319.415011
703.121038,-51370.292375,740.205942,-83351.190182
703.123562,-23242.466579,4589.276840,-78294.959896
703.126086,22946.384202,18357.107362,-69714.690318
703.128610,17616.901420,-13915.871710,-73851.606007
703.131134,-29460.196492,-3552.988522,-79214.274493
703.133658,-444.123565,7994.224174,-76609.549800
703.136182,-23390.507767,3256.906145,-76609.549800
703.138706,27387.619854,740.205942,-72319.415011
703.141231,15248.242405,-10807.006753,-73851.606007
703.143755,-20281.642811,2072.576638,-79061.055394
703.146279,-11251.130318,296.082377,-77682.083497
703.148803,22058.137072,-4293.194464,-73698.386908
703.151327,12435.459826,-9178.553681,-75383.797003
703.153851,740.205942,10214.842000,-74770.920605
703.156375,888.247130,2960.823768,-74311.263306
703.158899,22206.178260,-4737.318029,-74158.044206
703.161423,12139.377449,-11695.253884,-75690.235202
703.163947,18505.148550,2960.823768,-72779.072310
703.166471,-22058.137072,3849.070898,-79367.493593
703.168995,-8882.471304,2220.617826,-78141.740796
703.171519,8586.388927,148.041188,-70634.004916
703.174043,21169.889941,296.082377,-70634.004916
703.176567,13471.748144,-11251.130318,-77988.521696
703.179091,-27683.702231,5329.482782,-81665.780087
703.181615,-7698.141797,444.123565,-74617.701505
703.184139,32717.102636,10807.006753,-70021.128517
703.186663,27239.578666,2368.659014,-72932.291410
703.189187,-592.164754,-4885.359217,-76303.111601
703.191711,18949.272115,-8438.347739,-74464.482406
703.194235,14804.118840,888.247130,-74004.825107
703.196759,13767.830521,7550.100608,-74311.263306
703.199283,-20281.642811,-9178.553681,-78448.178995
703.201807,15692.365970,-296.082377,-72779.072310
703.204331,13767.830521,3701.029710,-72166.195912
703.206856,-11547.212695,2072.576638,-76915.987999
703.209380,-19837.519246,-2960.823768,-79827.150892
703.211904,-10362.883188,-1184.329507,-76915.987999
703.214428,12287.418637,9030.512492,-71246.881314
703.216952,2072.576638,13767.830521,-73545.167808
703.219476,-2368.659014,-12583.501014,-75537.016103
703.222014,-5625.565159,-6217.729913,-76303.111601
703.224553,3701.029710,-4441.235652,-74770.920605
703.227091,740.205942,8586.388927,-77222.426198
703.229629,-18505.148550,6809.894666,-78601.398095
703.232168,-32717.102636,5921.647536,-77988.521696
703.234706,11695.253884,-296.082377,-72779.072310
703.237245,3849.070898,6365.771101,-75537.016103
703.239783,-11695.253884,5329.482782,-75077.358804
703.242322,4885.359217,8438.347739,-75077.358804
703.244860,-4293.194464,-3404.947333,-75077.358804
703.247399,-7846.182985,-740.205942,-75230.577904
703.249937,-13175.665768,-1924.535449,-77222.426198
703.252475,-17320.819043,1332.370696,-77528.864398
703.255014,1036.288319,10510.924376,-76456.330700
703.257552,-13915.871710,-4589.276840,-76456.330700
703.260091,22650.301825,-4293.194464,-70940.443115
703.262629,2220.617826,5329.482782,-75537.016103
703.265168,-31828.855506,4441.235652,-80133.589091
703.267706,21465.972318,8438.347739,-74924.139704
703.270245,9030.512492,-1036.288319,-74311.263306
703.272783,13619.789333,-444.123565,-74924.139704
703.275321,-2664.741391,1480.411884,-75996.673402
703.277860,22354.219448,-10510.924376,-72472.634111
703.280398,148.041188,-2220.617826,-74464.482406
703.282937,-444.123565,11991.336260,-77375.645298
703.285475,-6365.771101,740.205942,-79214.274493
703.288014,-12435.459826,1776.494261,-77835.302597
703.290552,21614.013506,-5181.441594,-74924.139704
703.293091,-38490.708984,5773.606348,-79827.150892
703.295629,-22946.384202,7698.141797,-79827.150892
703.298167,-9474.636058,7846.182985,-72779.072310
703.300706,62917.505070,-11399.171507,-66803.527426
703.303244,15840.407159,-14952.160028,-75230.577904
703.305783,-11251.130318,888.247130,-79520.712692
703.308321,-4737.318029,6809.894666,-75996.673402
703.310860,27683.702231,15840.407159,-70480.785816
703.313398,44856.480085,-5033.400406,-71706.538613
703.315937,-5921.647536,4737.318029,-74311.263306
703.318475,2516.700203,-2664.741391,-77375.645298
703.321013,-17172.777854,-3997.112087,-77375.645298
703.323564,28423.908173,3404.947333,-71093.662214
703.326115,11399.171507,3849.070898,-71400.100414
703.328665,-15248.242405,-3404.947333,-78448.178995
703.331216,-22798.343014,5773.606348,-79367.493593
703.333766,-4885.359217,5181.441594,-75996.673402
703.336317,6069.688724,7105.977043,-72779.072310
703.338867,1184.329507,12731.542202,-74158.044206
703.341418,2220.617826,-10362.883188,-75383.797003
703.343969,-6661.853478,-5773.606348,-75077.358804
703.346519,740.205942,-8586.388927,-74617.701505
703.349070,8290.306550,10955.047942,-74464.482406
703.351620,7994.224174,6661.853478,-73545.167808
703.354171,7550.100608,-10807.006753,-75690.235202
703.356722,-9030.512492,-4885.359217,-76762.768900
703.359272,-30940.608376,9622.677246,-78448.178995
703.361823,14656.077652,4737.318029,-70634.004916
703.364373,19097.313304,148.041188,-72472.634111
703.366924,-16284.530724,-6957.935855,-77375.645298
703.369474,-27683.702231,4293.194464,-78141.740796
703.372025,2960.823768,9474.636058,-74311.263306
703.374576,18357.107362,-10510.924376,-73851.606007
703.377126,4293.194464,10955.047942,-76149.892501
703.379677,-14952.160028,-7402.059420,-78141.740796
703.382227,-17172.777854,2960.823768,-76609.549800
703.384778,36122.049970,-7846.182985,-70634.004916
703.387328,13323.706956,-2220.617826,-74924.139704
703.389879,-21762.054695,-3701.029710,-80133.589091
703.392430,-592.164754,3849.070898,-75843.454302
703.394980,20873.807564,-2368.659014,-73391.948708
703.397531,9030.512492,4737.318029,-74311.263306
703.400081,-296.082377,5329.482782,-74311.263306
703.402632,16432.571912,740.205942,-74617.701505
703.405192,15988.448347,-3701.029710,-74464.482406
703.407751,2960.823768,-1776.494261,-74158.044206
703.410311,-18505.148550,-1332.370696,-78754.617194
703.412870,-11843.295072,-1924.535449,-77988.521696
703.415430,-14804.118840,9622.677246,-75230.577904
703.417990,18949.272115,-7105.977043,-72932.291410
703.420549,-21021.848753,-5477.523971,-80286.808190
703.423109,-16432.571912,-3849.070898,-79673.931792
703.425668,17764.942608,444.123565,-71706.538613
703.428228,33457.308578,1628.453072,-71553.319513
703.430788,2368.659014,-1776.494261,-75077.358804
703.433347,20281.642811,-6365.771101,-75996.673402
703.435907,-6957.935855,4737.318029,-77222.426198
703.438467,-592.164754,-3552.988522,-78754.617194
703.441026,-17764.942608,-14063.912898,-78294.959896
703.443586,28275.866984,4589.276840,-72166.195912
703.446145,-9474.636058,888.247130,-74924.139704
703.448705,-17912.983796,1332.370696,-77835.302597
703.451265,-15100.201217,0.000000,-78754.617194
703.453824,2220.617826,0.000000,-74617.701505
703.456384,7698.141797,3849.070898,-73391.948708
703.458943,-3108.864956,7254.018232,-74924.139704
703.461503,148.041188,-16728.654289,-76303.111601
703.464063,-1184.329507,740.205942,-73545.167808
703.466622,5329.482782,7994.224174,-75077.358804
703.469182,-5033.400406,2220.617826,-75690.235202
703.471742,-16580.613101,8142.265362,-77988.521696
703.474301,10510.924376,5773.606348,-70940.443115
703.476861,32124.937883,6217.729913,-68948.594820
703.479420,46484.933158,-9030.512492,-69561.471218
703.481980,-16136.489536,-5625.565159,-79061.055394
703.484540,-31828.855506,8882.471304,-77988.521696
703.487099,11251.130318,8882.471304,-72012.976812
703.489659,19393.395680,7105.977043,-72012.976812
703.492218,-27387.619854,-2072.576638,-78448.178995
703.494778,-4737.318029,1776.494261,-75690.235202
703.497338,18209.066173,6957.935855,-72319.415011
703.499897,-6217.729913,740.205942,-75537.016103
703.502457,-16876.695478,-888.247130,-77222.426198
703.505017,10658.965565,-7550.100608,-73085.510509
703.507583,31236.690752,-2072.576638,-72932.291410
703.510150,-10658.965565,9178.553681,-77528.864398
703.512717,3404.947333,-2072.576638,-76456.330700
703.515284,12879.583391,2812.782580,-74004.825107
703.517850,15988.448347,-148.041188,-73851.606007
703.520417,-9918.759623,11251.130318,-75996.673402
703.522984,11547.212695,2516.700203,-76149.892501
703.525551,11991.336260,-592.164754,-75690.235202
703.528117,13767.830521,-5625.565159,-75077.358804
703.530684,-9178.553681,7254.018232,-75077.358804
703.533251,26055.249158,7994.224174,-72012.976812
703.535818,28275.866984,-4885.359217,-70940.443115
703.538384,8882.471304,-7105.977043,-78448.178995
703.540951,-39230.914926,6809.894666,-81052.903688
703.543518,14952.160028,11991.336260,-75537.016103
703.546085,27091.537477,-5033.400406,-71553.319513
703.548651,28423.908173,-4293.194464,-72166.195912
703.551218,-22206.178260,4441.235652,-79520.712692
703.553785,15692.365970,5329.482782,-74770.920605
703.556352,19985.560434,-6661.853478,-74004.825107
703.558918,13175.665768,6069.688724,-75230.577904
703.561485,-30496.484810,-6957.935855,-80899.684589
703.564052,13619.789333,10362.883188,-77222.426198
703.566619,12287.418637,-6069.688724,-70634.004916
703.569185,19837.519246,5181.441594,-70327.566716
703.571752,-15840.407159,-740.205942,-78294.959896
703.574319,-27683.702231,-3108.864956,-81818.999186
703.576886,-20133.601622,-296.082377,-78601.398095
703.579452,3997.112087,18949.272115,-72472.634111
703.582019,2960.823768,6957.935855,-72166.195912
703.584586,-15396.283594,-4293.194464,-76915.987999
703.587153,-3701.029710,-10807.006753,-73851.606007
703.589720,8882.471304,12583.501014,-73545.167808
703.592286,19393.395680,7994.224174,-72319.415011
703.594853,26055.249158,4145.153275,-71553.319513
703.597420,4293.194464,4293.194464,-72625.853210
703.599987,444.123565,-1776.494261,-72472.634111
703.602553,1924.535449,6217.729913,-74464.482406
703.605120,-2960.823768,2368.659014,-75996.673402
703.607687,-15396.283594,3849.070898,-78141.740796
703.610259,-1924.535449,5181.441594,-74004.825107
703.612832,16876.695478,-8586.388927,-73851.606007
703.615405,3552.988522,10658.965565,-75690.235202
703.617977,-29164.114115,-5921.647536,-78601.398095
703.620550,22946.384202,6809.894666,-70634.004916
703.623122,20281.642811,-9474.636058,-74158.044206
703.625695,-16284.530724,8734.430116,-79061.055394
703.628268,-11695.253884,-1776.494261,-78294.959896
703.630840,4441.235652,-592.164754,-75843.454302
703.633413,17172.777854,-2220.617826,-72932.291410
703.635985,11103.089130,8290.306550,-73698.386908
703.638558,2664.741391,2812.782580,-74311.263306
703.641130,13471.748144,-5329.482782,-75077.358804
703.643703,7994.224174,1332.370696,-75537.016103
703.646276,1924.535449,6365.771101,-76609.549800
703.648848,-2072.576638,6365.771101,-77682.083497
703.651421,-21910.095883,10362.883188,-75843.454302
703.653993,30348.443622,15396.283594,-68795.375720
703.656566,55515.445650,11103.089130,-67722.842023
703.659139,55959.569215,-15396.283594,-68488.937521
703.661711,2960.823768,-11399.171507,-80440.027290
703.664284,-9918.759623,-2812.782580,-79367.493593
703.666856,-1036.288319,6957.935855,-75230.577904
703.669429,29608.237680,10658.965565,-72012.976812
703.672002,0.000000,1924.535449,-77069.207099
703.674574,-2072.576638,-5329.482782,-77375.645298
703.677147,11991.336260,8586.388927,-73698.386908
703.679719,13323.706956,-4885.359217,-75383.797003
703.682292,-15248.242405,10214.842000,-74464.482406
703.684864,21614.013506,-5477.523971,-70940.443115
703.687437,-2220.617826,1480.411884,-73391.948708
703.690010,5033.400406,2220.617826,-75383.797003
703.692582,-18209.066173,-5329.482782,-78907.836294
703.695155,-26055.249158,1924.535449,-79520.712692
703.697727,-6513.812290,3849.070898,-75383.797003
703.700300,5773.606348,14508.036463,-71706.538613
703.702873,-296.082377,-2516.700203,-75537.016103
703.705445,-9918.759623,-9918.759623,-76762.768900
703.708018,9474.636058,-2960.823768,-76149.892501
703.710590,-14359.995275,3849.070898,-80746.465489
703.713167,-48853.592172,14063.912898,-78294.959896
703.715743,27091.537477,6365.771101,-65884.212828
703.718319,63657.711012,-14952.160028,-69255.033019
703.720896,18209.066173,-7105.977043,-72932.291410
703.723472,-31236.690752,-16728.654289,-80440.027290
703.726048,-29904.320057,-1332.370696,-79061.055394
703.728624,-3997.112087,12731.542202,-75383.797003
703.731201,1480.411884,-3849.070898,-75843.454302
703.733777,-10066.800811,888.247130,-75690.235202
703.736353,3701.029710,592.164754,-75383.797003
703.738930,-5921.647536,5921.647536,-76915.987999
703.741506,11399.171507,-6365.771101,-74770.920605
703.744082,28423.908173,2220.617826,-74924.139704
703.746659,-7105.977043,1036.288319,-77069.207099
703.749235,13027.624579,2960.823768,-74924.139704
703.751811,5477.523971,3404.947333,-75383.797003
703.754388,20577.725188,-12879.583391,-74770.920605
703.756964,-14804.118840,8438.347739,-76456.330700
703.759540,8882.471304,8438.347739,-75996.673402
703.762117,1332.370696,-444.123565,-75077.358804
703.764693,15248.242405,-2220.617826,-75537.016103
703.767269,-11991.336260,12879.583391,-75537.016103
703.769845,740.205942,9030.512492,-74924.139704
703.772422,15100.201217,3404.947333,-72319.415011
703.774998,19985.560434,-3997.112087,-70940.443115
703.777574,25018.960840,-5033.400406,-73238.729609
703.780151,6217.729913,4293.194464,-76762.768900
703.782727,13471.748144,-296.082377,-76149.892501
703.785303,-9622.677246,12139.377449,-75537.016103
703.787880,24722.878463,3701.029710,-71400.100414
703.790456,19097.313304,-5181.441594,-73238.729609
703.793032,7402.059420,3997.112087,-76609.549800
703.795609,-24870.919651,-10362.883188,-80286.808190
703.798185,23390.507767,11399.171507,-72012.976812
703.800761,16432.571912,-2812.782580,-69408.252119
703.803338,-10066.800811,-2664.741391,-75690.235202
703.805914,-27979.784608,-5477.523971,-79827.150892
703.808490,-7254.018232,3849.070898,-77528.864398
703.811066,14952.160028,9326.594869,-73391.948708
703.813643,3849.070898,11843.295072,-74158.044206
703.816222,9326.594869,-2664.741391,-72472.634111
703.818801,-8290.306550,-13619.789333,-76456.330700
703.821380,-1776.494261,-1184.329507,-74158.044206
703.823959,-1776.494261,13915.871710,-75690.235202
703.826539,21762.054695,9770.718434,-73391.948708
703.829118,22946.384202,-13027.624579,-74770.920605
703.831697,-28423.908173,1184.329507,-80593.246390
703.834276,-42635.862259,14211.954086,-76456.330700
703.836855,25759.166782,9326.594869,-69867.909418
703.839434,9770.718434,-7402.059420,-72932.291410
703.842014,-12435.459826,-12139.377449,-77835.302597
703.844593,-49149.674549,9474.636058,-80440.027290
703.847172,-17024.736666,6661.853478,-77988.521696
703.849751,-740.205942,1036.288319,-72779.072310
703.852330,23686.590144,-296.082377,-71706.538613
703.854909,-31088.649564,3256.906145,-79214.274493
703.857489,740.205942,5625.565159,-75537.016103
703.860068,36418.132346,296.082377,-73085.510509
703.862647,3108.864956,5329.482782,-75996.673402
703.865226,-296.082377,-2664.741391,-75843.454302
703.867805,10658.965565,6809.894666,-73391.948708
703.870384,20577.725188,-8142.265362,-74158.044206
703.872964,-8438.347739,15692.365970,-76303.111601
703.875543,7994.224174,2516.700203,-77528.864398
703.878122,-148.041188,1628.453072,-76609.549800
703.880701,21762.054695,5773.606348,-73545.167808
703.883280,21169.889941,-5625.565159,-70327.566716
703.885859,29016.072926,-7698.141797,-72472.634111
703.888439,-6661.853478,5181.441594,-74924.139704
703.891018,30940.608376,148.041188,-72625.853210
703.893597,5181.441594,-888.247130,-75690.235202
703.896176,1776.494261,2516.700203,-77988.521696
703.898755,-2812.782580,-296.082377,-74617.701505
703.901334,15100.201217,4145.153275,-74311.263306
703.903914,-9030.512492,4441.235652,-76303.111601
703.906493,5477.523971,-4293.194464,-75537.016103
703.909072,1776.494261,4737.318029,-76456.330700
703.911651,20873.807564,2812.782580,-75537.016103
703.914230,-30052.361245,6661.853478,-77222.426198
703.916809,14359.995275,2368.659014,-71400.100414
703.919391,296.082377,-4145.153275,-73238.729609
703.921972,-7254.018232,5625.565159,-76303.111601
703.924554,-23834.631332,-5921.647536,-80286.808190
703.927135,-11843.295072,4441.235652,-78601.398095
703.929716,-3108.864956,9770.718434,-75383.797003
703.932298,11547.212695,5625.565159,-71859.757712
703.934879,-1924.535449,-10807.006753,-75843.454302
703.937461,-3997.112087,-7698.141797,-74617.701505
703.940042,2220.617826,-2220.617826,-75077.358804
703.942623,16876.695478,6957.935855,-76149.892501
703.945205,5033.400406,-2812.782580,-77375.645298
703.947786,-21762.054695,-1628.453072,-78141.740796
703.950368,-18801.230927,9474.636058,-74770.920605
703.952949,13027.624579,1480.411884,-72166.195912
703.955530,-4441.235652,2664.741391,-76149.892501
703.958112,-22798.343014,-1628.453072,-78754.617194
703.960693,-1480.411884,5033.400406,-76303.111601
703.963275,22058.137072,4441.235652,-73545.167808
703.965856,-22206.178260,-3552.988522,-76456.330700
703.968437,6365.771101,-2664.741391,-73545.167808
703.971019,12287.418637,-296.082377,-72472.634111
703.973600,16136.489536,-1036.288319,-75690.235202
703.976182,-6957.935855,3849.070898,-77375.645298
703.978763,11843.295072,888.247130,-74924.139704
703.981344,4145.153275,-1924.535449,-73851.606007
703.983926,12879.583391,4293.194464,-72012.976812
703.986507,7105.977043,1184.329507,-72625.853210
703.989089,11399.171507,-5033.400406,-76456.330700
703.991670,-1184.329507,4885.359217,-78141.740796
703.994251,8142.265362,5181.441594,-73851.606007
703.996833,9178.553681,7254.018232,-72472.634111
703.999414,34937.720462,-5181.441594,-69867.909418
704.001995,6365.771101,-1480.411884,-73851.606007
704.004577,-9030.512492,5033.400406,-76149.892501
704.007158,20725.766376,2664.741391,-75537.016103
704.009740,25315.043216,592.164754,-73085.510509
704.012321,23538.548956,-10955.047942,-74311.263306
704.014902,-6365.771101,4737.318029,-75690.235202
704.017484,7254.018232,7698.141797,-75230.577904
704.020065,9770.718434,-5181.441594,-75843.454302
704.022647,12879.583391,3552.988522,-77222.426198
704.025229,-13915.871710,-1480.411884,-81052.903688
704.027812,2960.823768,13027.624579,-75537.016103
704.030394,19541.436869,-3256.906145,-69867.909418
704.032976,740.205942,-2220.617826,-73391.948708
704.035558,-10066.800811,1036.288319,-76303.111601
704.038140,-21317.931130,-3404.947333,-81052.903688
704.040722,-20281.642811,1184.329507,-80440.027290
704.043304,3849.070898,14656.077652,-73391.948708
704.045886,16876.695478,7254.018232,-69867.909418
704.048468,-2368.659014,-7846.182985,-74004.825107
704.051050,-17172.777854,-7846.182985,-78141.740796
704.053632,-21317.931130,3997.112087,-79980.369991
704.056215,-18801.230927,21910.095883,-77375.645298
704.058797,26055.249158,4589.276840,-70480.785816
704.061379,54331.116143,-12583.501014,-68642.156621
704.063961,-22206.178260,-14508.036463,-77069.207099
704.066543,-33901.432144,-10955.047942,-78141.740796
704.069125,-18061.024985,0.000000,-78141.740796
704.071707,-16432.571912,19837.519246,-76303.111601
704.074289,9030.512492,-5921.647536,-76762.768900
704.076871,-8142.265362,740.205942,-75843.454302
704.079453,-6217.729913,4145.153275,-74924.139704
704.082035,-11843.295072,4441.235652,-75077.358804
704.084617,21762.054695,-11103.089130,-72932.291410
704.087200,2368.659014,-6661.853478,-77528.864398
704.089782,5033.400406,5625.565159,-77069.207099
704.092364,12139.377449,-4293.194464,-75843.454302
704.094946,13915.871710,-2960.823768,-74311.263306
704.097528,888.247130,1776.494261,-72472.634111
704.100110,2664.741391,13767.830521,-72472.634111
704.102692,16432.571912,592.164754,-75537.016103
704.105274,4145.153275,3404.947333,-78754.617194
704.107856,9326.594869,-4145.153275,-76149.892501
704.110438,32124.937883,-8882.471304,-69101.813920
704.113020,-8142.265362,-9474.636058,-78601.398095
704.115603,-43968.232955,19985.560434,-76303.111601
704.118185,54775.239708,-2516.700203,-67876.061123
704.120767,35529.885216,-7550.100608,-72932.291410
704.123349,-5477.523971,-7402.059420,-80440.027290
704.125932,-25315.043216,2812.782580,-76762.768900
704.128515,36714.214723,1184.329507,-72932.291410
704.131097,34493.596897,-1480.411884,-70174.347617
704.133680,4589.276840,1332.370696,-77069.207099
704.136263,-15988.448347,-9474.636058,-80133.589091
704.138846,24574.837274,9918.759623,-73851.606007
704.141429,-3108.864956,1480.411884,-75230.577904
704.144012,-27239.578666,296.082377,-76609.549800
704.146594,-10510.924376,-3701.029710,-75230.577904
704.149177,5181.441594,3701.029710,-72472.634111
704.151760,13323.706956,-1628.453072,-75690.235202
704.154343,-27091.537477,-1924.535449,-81512.560987
704.156926,-17764.942608,-9474.636058,-79061.055394
704.159509,-6809.894666,19097.313304,-72779.072310
704.162091,12139.377449,10510.924376,-72625.853210
704.164674,148.041188,-5625.565159,-76303.111601
704.167257,-28127.825796,1480.411884,-81206.122788
704.169840,-19245.354492,888.247130,-78601.398095
704.172423,-3849.070898,13767.830521,-74004.825107
704.175006,33013.185013,-8438.347739,-68335.718422
704.177588,-14359.995275,-1332.370696,-74158.044206
704.180171,-18061.024985,1776.494261,-75383.797003
704.182754,-13323.706956,14063.912898,-74770.920605
704.185337,21169.889941,-6513.812290,-74464.482406
704.187920,1036.288319,1628.453072,-77835.302597
704.190503,-28719.990550,-592.164754,-77988.521696
704.193085,-11547.212695,1776.494261,-74924.139704
704.195668,18061.024985,592.164754,-71246.881314
704.198251,3256.906145,-3849.070898,-76762.768900
704.200834,0.000000,3552.988522,-79061.055394
704.203417,2812.782580,-1924.535449,-78141.740796
704.206000,19541.436869,-444.123565,-73851.606007
704.208582,9030.512492,3404.947333,-71553.319513
704.211165,12583.501014,-11103.089130,-73851.606007
704.213748,-18801.230927,-4145.153275,-79827.150892
704.216331,8882.471304,4293.194464,-77682.083497
704.218914,5181.441594,-1332.370696,-76915.987999
704.221497,9030.512492,8438.347739,-73698.386908
704.224079,33161.226202,148.041188,-71246.881314
704.226662,10658.965565,1776.494261,-73391.948708
704.229245,-19689.478057,592.164754,-78601.398095
704.231827,12435.459826,1480.411884,-77069.207099
704.234409,23834.631332,2220.617826,-74464.482406
704.236992,19097.313304,6513.812290,-73851.606007
704.239574,17320.819043,-9918.759623,-72319.415011
704.242157,13767.830521,5181.441594,-71706.538613
704.244739,-444.123565,740.205942,-75230.577904
704.247321,740.205942,2960.823768,-75843.454302
704.249904,18061.024985,-4441.235652,-76762.768900
704.252486,-21465.972318,10658.965565,-77222.426198
704.255069,-21910.095883,1332.370696,-73851.606007
704.257651,-10807.006753,3552.988522,-72779.072310
704.260233,-6809.894666,-4737.318029,-72012.976812
704.262816,9178.553681,-740.205942,-74311.263306
704.265398,-16728.654289,-444.123565,-80593.246390
704.267981,-13619.789333,-5329.482782,-79980.369991
704.270563,-12583.501014,11695.253884,-75383.797003
704.273146,16136.489536,2960.823768,-71400.100414
704.275728,-296.082377,8734.430116,-71859.757712
704.278310,25463.084405,-3552.988522,-74464.482406
704.280893,11399.171507,-9770.718434,-78907.836294
704.283475,-6957.935855,-14211.954086,-83197.971083
704.286058,-54627.198520,9474.636058,-80899.684589
704.288640,-27683.702231,7698.141797,-75843.454302
704.291222,15692.365970,5033.400406,-72932.291410
704.293805,-6809.894666,6661.853478,-75690.235202
704.296387,-16432.571912,-6809.894666,-81359.341888
704.298970,-3552.988522,10066.800811,-76303.111601
704.301552,2812.782580,-6661.853478,-74004.825107
704.304134,-4885.359217,2220.617826,-72932.291410
704.306717,592.164754,-11251.130318,-73545.167808
704.309299,-4145.153275,6513.812290,-75383.797003
704.311882,14508.036463,-148.041188,-75843.454302
704.314464,6069.688724,5033.400406,-78448.178995
704.317046,2812.782580,-5625.565159,-77222.426198
704.319629,-296.082377,2516.700203,-72932.291410
704.322211,11991.336260,6809.894666,-69255.033019
704.324794,8586.388927,-1776.494261,-74311.263306
704.327376,1480.411884,3552.988522,-76456.330700
704.329958,2812.782580,4885.359217,-77988.521696
704.332540,29164.114115,10955.047942,-67876.061123
704.335122,41007.409187,-19097.313304,-74311.263306
704.337704,-65582.246461,19837.519246,-80746.465489
704.340287,12287.418637,9326.594869,-68029.280222
704.342869,57143.898722,4589.276840,-68948.594820
704.345451,33309.267390,-15396.283594,-76456.330700
704.348033,-33309.267390,-1332.370696,-82891.532884
704.350615,-35677.926404,3256.906145,-79061.055394
704.353197,15988.448347,1776.494261,-72472.634111
704.355779,27979.784608,6809.894666,-71553.319513
704.358361,2516.700203,-12287.418637,-79980.369991
704.360943,-11399.171507,11695.253884,-80133.589091
704.363525,20577.725188,-148.041188,-74004.825107
704.366107,0.000000,5921.647536,-72779.072310
704.368689,-22798.343014,-7402.059420,-78294.959896
704.371271,-33161.226202,3997.112087,-79367.493593
704.373853,4885.359217,7550.100608,-76609.549800
704.376435,22354.219448,12879.583391,-73698.386908
704.379017,13619.789333,-14804.118840,-77682.083497
704.381599,-5477.523971,-7550.100608,-74158.044206
704.384181,-19837.519246,-2960.823768,-76149.892501
704.386763,-20133.601622,10510.924376,-74004.825107
704.389345,30052.361245,10807.006753,-72932.291410
704.391927,17024.736666,-6217.729913,-72932.291410
704.394509,0.000000,-9030.512492,-77682.083497
704.397091,-40415.244433,740.205942,-75843.454302
704.399673,2220.617826,10658.965565,-70634.004916
704.402255,-7254.018232,9474.636058,-71246.881314
704.404837,10214.842000,-12435.459826,-75230.577904
704.407419,-13767.830521,4737.318029,-78601.398095
704.410001,-14211.954086,3552.988522,-77222.426198
704.412583,10066.800811,1924.535449,-73085.510509
704.415165,18801.230927,-148.041188,-69867.909418
704.417747,-8734.430116,-5625.565159,-75843.454302
704.420329,10955.047942,7105.977043,-77222.426198
704.422911,6957.935855,-6513.812290,-78601.398095
704.425493,25907.207970,1628.453072,-76303.111601
704.428075,2368.659014,-888.247130,-74924.139704
704.430657,13619.789333,-3404.947333,-72779.072310
704.433239,-17172.777854,-148.041188,-76149.892501
704.435820,10955.047942,6513.812290,-75843.454302
704.438402,-4145.153275,-10362.883188,-81206.122788
704.440984,-5921.647536,10955.047942,-78448.178995
704.443565,-18653.189738,-1924.535449,-76915.987999
704.446147,2368.659014,6661.853478,-73391.948708
704.448728,-4589.276840,-1480.411884,-76149.892501
704.451310,-3701.029710,-2664.741391,-77835.302597
704.453891,6069.688724,-7254.018232,-77988.521696
704.456473,11251.130318,3849.070898,-77069.207099
704.459055,-2368.659014,-1036.288319,-76915.987999
704.461636,1184.329507,740.205942,-72779.072310
704.464218,12731.542202,2516.700203,-72472.634111
704.466799,-8290.306550,-1924.535449,-78141.740796
704.469381,14952.160028,5181.441594,-76915.987999
704.471962,13619.789333,4145.153275,-75383.797003
704.474544,-9622.677246,2220.617826,-75843.454302
704.477125,-16728.654289,6661.853478,-75690.235202
704.479707,-27535.661042,-4737.318029,-77528.864398
704.482289,-2220.617826,6661.853478,-75077.358804
704.484870,23538.548956,13767.830521,-72319.415011
704.487452,23390.507767,-5033.400406,-74311.263306
704.490033,-17172.777854,-15544.324782,-77528.864398
704.492615,-4441.235652,-5033.400406,-71246.881314
704.495196,20873.807564,-2960.823768,-71246.881314
704.497778,-18505.148550,-3404.947333,-76915.987999
704.500360,-42043.697506,2516.700203,-80593.246390
704.502941,-9178.553681,12287.418637,-73851.606007
704.505523,37010.297100,14063.912898,-70174.347617
704.508104,7550.100608,-3701.029710,-70327.566716
704.510686,-33161.226202,1924.535449,-78141.740796
704.513267,-32124.937883,5477.523971,-79827.150892
704.515849,26943.496289,8882.471304,-74464.482406
704.518430,-6069.688724,-6217.729913,-78448.178995
704.521012,-19393.395680,-1776.494261,-79061.055394
704.523594,-2368.659014,-3404.947333,-73698.386908
704.526175,7846.182985,7846.182985,-73698.386908
704.528757,3404.947333,-1036.288319,-77375.645298
704.531338,4885.359217,-2220.617826,-79827.150892
704.533920,13175.665768,-5033.400406,-77222.426198
704.536501,13323.706956,592.164754,-73391.948708
704.539082,8142.265362,-4145.153275,-70634.004916
704.541664,9622.677246,-6957.935855,-74464.482406
704.544245,-5921.647536,2812.782580,-79061.055394
704.546826,-1332.370696,-2516.700203,-79214.274493
704.549407,-22058.137072,15248.242405,-78141.740796
704.551988,53294.827824,-1924.535449,-69867.909418
704.554569,-15396.283594,10066.800811,-76149.892501
704.557150,6957.935855,5921.647536,-72012.976812
704.559731,34789.679274,4441.235652,-72319.415011
704.562312,25611.125593,3404.947333,-74770.920605
704.564893,23390.507767,-13767.830521,-76456.330700
704.567475,7846.182985,5773.606348,-73851.606007
704.570056,14804.118840,-1036.288319,-73085.510509
704.572637,-12731.542202,6217.729913,-73698.386908
704.575218,30940.608376,-9030.512492,-74464.482406
704.577799,-24722.878463,9030.512492,-77375.645298
704.580380,5921.647536,-2812.782580,-75077.358804
704.582961,-19541.436869,4885.359217,-73698.386908
704.585542,-444.123565,-1036.288319,-71706.538613
704.588123,-15100.201217,1332.370696,-74311.263306
704.590704,-18061.024985,1036.288319,-78907.836294
704.593286,-17764.942608,7698.141797,-76915.987999
704.595867,26351.331535,15100.201217,-71553.319513
704.598448,7994.224174,-4441.235652,-73391.948708
704.601029,-5625.565159,3849.070898,-71706.538613
704.603610,5477.523971,-11103.089130,-74924.139704
704.606191,-14656.077652,888.247130,-78601.398095
704.608772,-19097.313304,0.000000,-80593.246390
704.611353,-6661.853478,13175.665768,-75537.016103
704.613934,10510.924376,-3108.864956,-72319.415011
704.616515,-13767.830521,2960.823768,-73391.948708
704.619096,444.123565,-6217.729913,-74924.139704
704.621677,-10510.924376,10362.883188,-78294.959896
704.624257,-2812.782580,-5921.647536,-78448.178995
704.626837,14211.954086,2072.576638,-73698.386908
704.629417,7994.224174,-1332.370696,-75996.673402
704.631998,-19985.560434,-4441.235652,-76456.330700
704.634578,14952.160028,3404.947333,-75690.235202
704.637158,2220.617826,-3849.070898,-77375.645298
704.639738,24426.796086,1036.288319,-76915.987999
704.642319,-740.205942,1332.370696,-76149.892501
704.644899,19689.478057,444.123565,-74158.044206
704.647479,-24870.919651,3256.906145,-76915.987999
704.650059,16728.654289,2220.617826,-74770.920605
704.652639,296.082377,-8142.265362,-75383.797003
704.655220,8142.265362,1776.494261,-80286.808190
704.657800,-30200.402434,-6809.894666,-79367.493593
704.660380,5477.523971,2812.782580,-73851.606007
704.662960,-15988.448347,-1332.370696,-75690.235202
704.665541,12139.377449,-2812.782580,-72012.976812
704.668121,3701.029710,4293.194464,-76762.768900
704.670701,28571.949361,-6069.688724,-76303.111601
704.673281,2220.617826,-5625.565159,-74617.701505
704.675861,6513.812290,8290.306550,-72319.415011
704.678442,444.123565,3997.112087,-71246.881314
704.681022,15248.242405,-3997.112087,-75383.797003
704.683602,-25611.125593,3108.864956,-78907.836294
704.686182,6513.812290,7698.141797,-73698.386908
704.688763,2812.782580,-1480.411884,-74464.482406
704.691343,-10214.842000,6957.935855,-76303.111601
704.693923,-4293.194464,-4737.318029,-76609.549800
704.696503,-31828.855506,2072.576638,-80286.808190
704.699083,-6957.935855,4145.153275,-77988.521696
704.701664,20133.601622,12583.501014,-72472.634111
704.704244,13915.871710,-6217.729913,-75996.673402
704.706824,-19393.395680,-10807.006753,-78754.617194
704.709404,-44412.356520,4293.194464,-80593.246390
704.711985,2812.782580,7402.059420,-74004.825107
704.714565,39082.873738,-8438.347739,-73085.510509
704.717145,-18209.066173,-10807.006753,-78907.836294
704.719725,-36714.214723,4589.276840,-78448.178995
704.722306,-13175.665768,19985.560434,-71706.538613
704.724885,8882.471304,10510.924376,-71706.538613
704.727463,21317.931130,-4441.235652,-74770.920605
704.730042,-27683.702231,-1924.535449,-81206.122788
704.732621,-9622.677246,4441.235652,-77835.302597
704.735200,20429.683999,5773.606348,-72012.976812
704.737779,-2960.823768,-5625.565159,-74924.139704
704.740358,2516.700203,3404.947333,-75537.016103
704.742937,1332.370696,1036.288319,-76609.549800
704.745516,25315.043216,888.247130,-75690.235202
704.748095,6069.688724,-444.123565,-75996.673402
704.750674,10362.883188,-888.247130,-75537.016103
704.753253,-22502.260637,7105.977043,-76149.892501
704.755832,15544.324782,1776.494261,-75383.797003
704.758411,2368.659014,-14211.954086,-78754.617194
704.760990,-23834.631332,-1332.370696,-80746.465489
704.763569,-18061.024985,4441.235652,-78294.959896
704.766148,-13323.706956,20429.683999,-72012.976812
704.768727,62917.505070,2220.617826,-64658.460031
704.771306,28719.990550,-8142.265362,-72166.195912
704.773885,-14063.912898,9030.512492,-80133.589091
704.776464,-2960.823768,8734.430116,-77375.645298
704.779043,45300.603650,7105.977043,-70021.128517
704.781622,19097.313304,-10066.800811,-73851.606007
704.784201,-19837.519246,444.123565,-76303.111601
704.786780,9918.759623,-1332.370696,-75690.235202
704.789359,3701.029710,12139.377449,-74924.139704
704.791938,-7254.018232,-4441.235652,-77528.864398
704.794517,-28571.949361,-148.041188,-78754.617194
704.797096,-17320.819043,-5181.441594,-75077.358804
704.799675,18949.272115,9178.553681,-70174.347617
704.802254,-3552.988522,-1776.494261,-76456.330700
704.804833,-25611.125593,-3849.070898,-79827.150892
704.807412,-12287.418637,4293.194464,-75843.454302
704.809991,16284.530724,3701.029710,-72779.072310
704.812570,-26499.372724,3108.864956,-79520.712692
704.815149,-28127.825796,11695.253884,-74158.044206
704.817728,44116.274143,-7994.224174,-73698.386908
704.820307,33309.267390,-9030.512492,-74770.920605
704.822886,-33605.349767,-10955.047942,-77682.083497
704.825465,-23390.507767,1480.411884,-76303.111601
704.828008,8438.347739,4293.194464,-72472.634111
704.830551,10658.965565,-4293.194464,-75383.797003
704.833095,-28719.990550,5625.565159,-79214.274493
704.835638,7698.141797,-1776.494261,-76762.768900
704.838181,-4145.153275,11399.171507,-75230.577904
704.840724,15988.448347,1036.288319,-72012.976812
704.843267,6809.894666,5773.606348,-74311.263306
704.845811,9474.636058,-4441.235652,-76149.892501
704.848354,13323.706956,-2220.617826,-75383.797003
704.850897,16876.695478,2664.741391,-74311.263306
704.853440,4885.359217,1924.535449,-75077.358804
704.855983,1480.411884,5773.606348,-73851.606007
704.858527,13619.789333,0.000000,-73545.167808
704.861070,8734.430116,1628.453072,-72472.634111
704.863613,14804.118840,-8882.471304,-78601.398095
704.866156,-23686.590144,592.164754,-79061.055394
704.868699,-7254.018232,2072.576638,-77069.207099
704.871243,-5033.400406,13471.748144,-70634.004916
704.873786,40267.203245,1924.535449,-70787.224015
704.876329,-1184.329507,6809.894666,-76149.892501
704.878872,26351.331535,-8290.306550,-75996.673402
704.881415,9770.718434,-1332.370696,-75383.797003
704.883959,14063.912898,7105.977043,-73698.386908
704.886502,-5033.400406,-1628.453072,-74770.920605
704.889045,21910.095883,-1776.494261,-74464.482406
704.891588,-18357.107362,-4293.194464,-78754.617194
704.894131,-8438.347739,8438.347739,-75383.797003
704.896675,-740.205942,-1480.411884,-74770.920605
704.899218,-5625.565159,6661.853478,-73085.510509
704.901761,-2072.576638,-6513.812290,-77375.645298
704.904304,-29016.072926,4441.235652,-78754.617194
704.906847,2664.741391,3108.864956,-75996.673402
704.909391,26203.290347,10362.883188,-73545.167808
704.911934,17912.983796,8734.430116,-74158.044206
704.914477,-7550.100608,2516.700203,-72012.976812
704.917020,17468.860231,-2812.782580,-74311.263306
704.919563,-8882.471304,3552.988522,-75383.797003
704.922107,22206.178260,-7254.018232,-73698.386908
704.924650,-7402.059420,4885.359217,-75383.797003
704.927193,5329.482782,-7846.182985,-72625.853210
704.929742,-10658.965565,-8142.265362,-74617.701505
704.932292,-9030.512492,4145.153275,-75230.577904
704.934841,-12287.418637,2664.741391,-76149.892501
704.937390,10066.800811,-3849.070898,-74617.701505
704.939939,-9474.636058,-4441.235652,-76915.987999
704.942489,-9622.677246,7550.100608,-74464.482406
704.945038,28868.031738,1480.411884,-72625.853210
704.947587,-4145.153275,4145.153275,-76609.549800
704.950137,22058.137072,-6513.812290,-75077.358804
704.952686,1924.535449,6217.729913,-75383.797003
704.955235,18357.107362,-5921.647536,-74617.701505
704.957784,-3256.906145,4293.194464,-73545.167808
704.960334,20725.766376,-148.041188,-73238.729609
704.962883,-13323.706956,2516.700203,-79061.055394
704.965432,-17172.777854,6217.729913,-80133.589091
704.967982,1036.288319,9030.512492,-75230.577904
704.970531,48261.427418,-16136.489536,-69867.909418
704.973080,47521.221476,-8438.347739,-67722.842023
704.975629,-8290.306550,-8290.306550,-79367.493593
704.978179,-25907.207970,-296.082377,-81818.999186
704.980728,740.205942,16876.695478,-76303.111601
704.983277,37158.338288,-8438.347739,-74158.044206
704.985826,1628.453072,-2960.823768,-75383.797003
704.988376,-11843.295072,-2960.823768,-76303.111601
704.990925,14211.954086,10066.800811,-73085.510509
704.993474,2368.659014,-5921.647536,-76609.549800
704.996024,-18209.066173,-3256.906145,-77069.207099
704.998573,-4145.153275,6069.688724,-75537.016103
705.001122,-11695.253884,5773.606348,-73085.510509
705.003671,18209.066173,8438.347739,-71400.100414
705.006221,-1480.411884,-5181.441594,-75537.016103
705.008770,-19393.395680,-888.247130,-79061.055394
705.011319,-12879.583391,4737.318029,-75537.016103
705.013869,24722.878463,14656.077652,-70634.004916
705.016418,34493.596897,-5477.523971,-69867.909418
705.018967,-1332.370696,-19245.354492,-75843.454302
705.021516,-20577.725188,-21762.054695,-80440.027290
705.024066,-40711.326810,3849.070898,-81818.999186
705.026615,-1184.329507,11695.253884,-73698.386908
705.029164,-11399.171507,7846.182985,-72779.072310
705.031719,6809.894666,-4293.194464,-73698.386908
705.034273,-2812.782580,-740.205942,-75996.673402
705.036828,-19393.395680,4293.194464,-79061.055394
705.039382,-6365.771101,592.164754,-77528.864398
705.041937,18801.230927,-1628.453072,-73851.606007
705.044491,-9622.677246,-1924.535449,-75996.673402
705.047046,14359.995275,3552.988522,-74924.139704
705.049600,3256.906145,-3404.947333,-76915.987999
705.052155,22502.260637,2072.576638,-75077.358804
705.054709,4441.235652,3701.029710,-73851.606007
705.057264,10955.047942,7550.100608,-75230.577904
705.059819,-14211.954086,-296.082377,-75843.454302
705.062373,22502.260637,3849.070898,-73545.167808
705.064928,-5329.482782,-6365.771101,-75690.235202
705.067482,-31236.690752,-1036.288319,-81052.903688
705.070037,-5921.647536,3552.988522,-74924.139704
705.072591,58624.310606,-5477.523971,-66343.870127
705.075146,2368.659014,-7994.224174,-74770.920605
705.077700,-18949.272115,4737.318029,-79980.369991
705.080255,9326.594869,3701.029710,-74004.825107
705.082809,38046.585419,888.247130,-74311.263306
705.085364,-8142.265362,-4885.359217,-78601.398095
705.087918,-5921.647536,11251.130318,-76609.549800
705.090473,10955.047942,-1924.535449,-73851.606007
705.093027,6217.729913,7550.100608,-72779.072310
705.095582,6365.771101,-8882.471304,-75537.016103
705.098136,-13027.624579,-592.164754,-76609.549800
705.100691,-10214.842000,5477.523971,-75383.797003
705.103245,-3256.906145,2516.700203,-76303.111601
705.105800,-23094.425390,-4441.235652,-78754.617194
705.108354,-1776.494261,888.247130,-73391.948708
705.110909,27979.784608,3701.029710,-71093.662214
705.113464,-2072.576638,1480.411884,-77222.426198
705.116018,-21910.095883,-3404.947333,-76762.768900
705.118573,11843.295072,2516.700203,-74004.825107
705.121127,15544.324782,148.041188,-72472.634111
705.123682,16136.489536,-5625.565159,-77528.864398
705.126236,-41451.532752,1036.288319,-79214.274493
705.128791,-33457.308578,3552.988522,-78141.740796
705.131345,-1332.370696,8734.430116,-72472.634111
705.133904,18357.107362,2368.659014,-72779.072310
705.136462,-27239.578666,-6365.771101,-78754.617194
705.139020,2220.617826,6513.812290,-75383.797003
705.141578,6957.935855,6957.935855,-74770.920605
705.144136,2664.741391,6661.853478,-73698.386908
705.146694,20577.725188,-3849.070898,-74617.701505
705.149252,-7698.141797,7105.977043,-76609.549800
705.151810,28127.825796,-2960.823768,-73085.510509
705.154368,8438.347739,7402.059420,-74617.701505
705.156926,14359.995275,5921.647536,-74770.920605
705.159484,-10510.924376,4885.359217,-76762.768900
705.162042,23094.425390,7402.059420,-72932.291410
705.164600,-888.247130,5181.441594,-74464.482406
705.167158,30792.567187,7550.100608,-72625.853210
705.169716,12731.542202,-4145.153275,-72625.853210
705.172274,16728.654289,5181.441594,-72932.291410
705.174832,22798.343014,-3256.906145,-72472.634111
705.177390,1332.370696,13175.665768,-75077.358804
705.179948,30200.402434,-9030.512492,-74158.044206
705.182506,12879.583391,2812.782580,-75383.797003
705.185064,15100.201217,-5625.565159,-76609.549800
705.187622,-3404.947333,9178.553681,-75230.577904
705.190180,26647.413912,-2664.741391,-73391.948708
705.192738,-27831.743419,2516.700203,-77988.521696
705.195296,7698.141797,1480.411884,-73851.606007
705.197854,-3997.112087,1480.411884,-74924.139704
705.200412,-8586.388927,8438.347739,-75996.673402
705.202970,-21465.972318,-6513.812290,-80440.027290
705.205528,-16580.613101,4885.359217,-78141.740796
705.208086,10955.047942,-5477.523971,-72932.291410
705.210644,26055.249158,888.247130,-70787.224015
705.213202,-11695.253884,-5033.400406,-75077.358804
705.215760,10955.047942,-6513.812290,-73391.948708
705.218318,6661.853478,-9030.512492,-75383.797003
705.220876,-10362.883188,2516.700203,-77682.083497
705.223434,-16284.530724,9622.677246,-76609.549800
705.225992,592.164754,-3256.906145,-73851.606007
705.228550,-21317.931130,3108.864956,-74770.920605
705.231108,-8142.265362,444.123565,-75996.673402
705.233666,-6809.894666,5773.606348,-76609.549800
705.236227,-10362.883188,-2516.700203,-77375.645298
705.238788,4589.276840,740.205942,-75690.235202
705.241349,17320.819043,1036.288319,-74770.920605
705.243909,-25611.125593,1480.411884,-77069.207099
705.246470,28127.825796,1776.494261,-73238.729609
705.249031,3256.906145,-1924.535449,-75077.358804
705.251592,21762.054695,3701.029710,-75383.797003
705.254153,-6069.688724,296.082377,-76609.549800
705.256714,13175.665768,9622.677246,-73545.167808
705.259275,-10066.800811,1628.453072,-75690.235202
705.261836,19837.519246,6365.771101,-72779.072310
705.264397,10955.047942,-1776.494261,-71400.100414
705.266958,47521.221476,2516.700203,-70327.566716
705.269519,10955.047942,-12139.377449,-77682.083497
705.272080,-30200.402434,-1036.288319,-81206.122788
705.274641,-21317.931130,444.123565,-75843.454302
705.277202,23390.507767,11103.089130,-74158.044206
705.279763,17468.860231,1036.288319,-74311.263306
705.282323,25463.084405,-3849.070898,-76609.549800
705.284884,-5033.400406,-740.205942,-77069.207099
705.287445,592.164754,296.082377,-74311.263306
705.290006,17616.901420,8882.471304,-70480.785816
705.292567,2812.782580,-9770.718434,-76303.111601
705.295128,-31680.814318,-3997.112087,-78601.398095
705.297689,-6365.771101,7402.059420,-76149.892501
705.300250,-9622.677246,5921.647536,-73085.510509
705.302811,18061.024985,-1184.329507,-74464.482406
705.305372,-32421.020260,3108.864956,-79061.055394
705.307933,-12435.459826,3404.947333,-76149.892501
705.310494,27683.702231,2368.659014,-68795.375720
705.313055,25018.960840,4145.153275,-74004.825107
705.315616,19985.560434,11399.171507,-70327.566716
705.318177,3701.029710,8882.471304,-74464.482406
705.320737,-7254.018232,5625.565159,-76303.111601
705.323298,16136.489536,5773.606348,-72625.853210
705.325859,-9770.718434,7846.182985,-72012.976812
705.328420,13915.871710,-10214.842000,-73085.510509
705.330981,-13471.748144,2960.823768,-75383.797003
705.333542,-6217.729913,4737.318029,-75843.454302
705.336103,3849.070898,0.000000,-74004.825107
705.338667,4589.276840,1184.329507,-77069.207099
705.341230,3849.070898,-1332.370696,-73085.510509
705.343793,26351.331535,6957.935855,-72779.072310
705.346357,-5477.523971,-2368.659014,-76303.111601
705.348920,31828.855506,-148.041188,-74464.482406
705.351484,3404.947333,-1332.370696,-75077.358804
705.354047,20577.725188,-4589.276840,-74004.825107
705.356611,-1036.288319,-10510.924376,-74770.920605
705.359174,6513.812290,3997.112087,-75996.673402
705.361738,-22354.219448,1924.535449,-77222.426198
705.364301,740.205942,21762.054695,-72319.415011
705.366865,89416.877794,-14804.118840,-63892.364533
705.369428,34493.596897,-25463.084405,-78907.836294
705.371991,-81570.694808,-5773.606348,-87794.544071
705.374555,-22058.137072,29608.237680,-75230.577904
705.377118,-13027.624579,23094.425390,-74158.044206
705.379682,62177.299128,6809.894666,-69714.690318
705.382245,11695.253884,-15840.407159,-76915.987999
705.384809,-18801.230927,10955.047942,-78141.740796
705.387372,9474.636058,10955.047942,-74311.263306
705.389936,2516.700203,5921.647536,-74004.825107
705.392499,-5921.647536,-15988.448347,-75383.797003
705.395062,-11843.295072,7698.141797,-76149.892501
705.397626,-5625.565159,8142.265362,-74158.044206
705.400189,5477.523971,-296.082377,-76303.111601
705.402753,-32124.937883,-9474.636058,-79673.931792
705.405316,0.000000,-2960.823768,-74924.139704
705.407880,14508.036463,-7846.182985,-72319.415011
705.410443,13767.830521,-1184.329507,-74004.825107
705.413007,-18357.107362,-10955.047942,-78907.836294
705.415570,-22502.260637,1628.453072,-79367.493593
705.418134,-16876.695478,10658.965565,-77835.302597
705.420697,10214.842000,19097.313304,-73238.729609
705.423260,-3404.947333,-4145.153275,-72166.195912
705.425824,-8734.430116,-6513.812290,-74311.263306
705.428387,-14804.118840,-1480.411884,-75996.673402
705.430951,-6957.935855,7846.182985,-74924.139704
705.433514,8438.347739,-7254.018232,-76456.330700
705.436078,-11251.130318,-1332.370696,-77835.302597
705.438641,4441.235652,-2516.700203,-74158.044206
705.441207,20725.766376,3256.906145,-73391.948708
705.443772,-592.164754,3256.906145,-75383.797003
705.446338,20577.725188,-3701.029710,-75077.358804
705.448903,11251.130318,740.205942,-75383.797003
705.451469,12731.542202,-6217.729913,-75690.235202
705.454035,-3701.029710,-5329.482782,-74464.482406
705.456600,-7402.059420,3404.947333,-75383.797003
705.459166,148.041188,10510.924376,-75537.016103
705.461731,34937.720462,-13323.706956,-72932.291410
705.464297,1776.494261,-2812.782580,-76609.549800
705.466863,12287.418637,296.082377,-74158.044206
705.469428,21169.889941,3701.029710,-72472.634111
705.471994,10214.842000,0.000000,-75383.797003
705.474559,1924.535449,-148.041188,-77528.864398
705.477125,15100.201217,2812.782580,-74924.139704
705.479690,19541.436869,-6069.688724,-75230.577904
705.482256,-592.164754,-296.082377,-74158.044206
705.484822,18801.230927,7254.018232,-72166.195912
705.487387,-18653.189738,3997.112087,-78141.740796
705.489953,-13619.789333,-1628.453072,-76609.549800
705.492518,1036.288319,3404.947333,-74311.263306
705.495084,-3997.112087,7550.100608,-73085.510509
705.497649,-4145.153275,-3256.906145,-78141.740796
705.500215,-20873.807564,2072.576638,-78754.617194
705.502781,-17912.983796,-3404.947333,-75996.673402
705.505346,20873.807564,-6957.935855,-71859.757712
705.507912,10362.883188,-6661.853478,-74924.139704
705.510477,-42339.779882,6365.771101,-80286.808190
705.513043,-18949.272115,5033.400406,-76609.549800
705.515608,31680.814318,-1480.411884,-72012.976812
705.518174,9918.759623,-15396.283594,-76149.892501
705.520740,-56551.733969,9918.759623,-79827.150892
705.523305,-13175.665768,8882.471304,-74770.920605
705.525871,22354.219448,-1776.494261,-71246.881314
705.528436,-5181.441594,-5921.647536,-76609.549800
705.531002,1184.329507,-5329.482782,-75383.797003
705.533567,-4441.235652,6957.935855,-77069.207099
705.536133,-20281.642811,3256.906145,-76915.987999
705.538699,36566.173535,2812.782580,-70940.443115
705.541264,-2220.617826,-2664.741391,-75537.016103
705.543831,18653.189738,1628.453072,-76456.330700
705.546398,8290.306550,6809.894666,-74924.139704
705.548964,22354.219448,-1036.288319,-74004.825107
705.551531,-740.205942,-8734.430116,-75077.358804
705.554098,14359.995275,3404.947333,-73085.510509
705.556664,2664.741391,5033.400406,-73698.386908
705.559231,37158.338288,-5477.523971,-73545.167808
705.561798,12139.377449,-17024.736666,-68642.156621
705.564364,35974.008781,-15248.242405,-74464.482406
705.566931,-35381.844028,7105.977043,-79673.931792
705.569498,27831.743419,-1332.370696,-73545.167808
705.572064,22946.384202,-1332.370696,-72472.634111
705.574631,32717.102636,-3552.988522,-75537.016103
705.577198,-19837.519246,4589.276840,-79061.055394
705.579764,11547.212695,3849.070898,-75383.797003
705.582331,5329.482782,5329.482782,-70327.566716
705.584898,30792.567187,-3256.906145,-70327.566716
705.587464,-34345.555709,-3849.070898,-78601.398095
705.590031,-9622.677246,9326.594869,-77835.302597
705.592598,-29016.072926,-11399.171507,-80133.589091
705.595164,8142.265362,8438.347739,-72779.072310
705.597731,23686.590144,-4293.194464,-71246.881314
705.600298,-12879.583391,10510.924376,-76609.549800
705.602865,-9918.759623,-7698.141797,-76609.549800
705.605431,19837.519246,-14952.160028,-75690.235202
705.607998,-27091.537477,-6217.729913,-77375.645298
705.610565,7402.059420,1332.370696,-76303.111601
705.613131,-15248.242405,3108.864956,-79367.493593
705.615698,-25018.960840,-5033.400406,-75996.673402
705.618265,592.164754,-2516.700203,-72472.634111
705.620831,-8142.265362,7550.100608,-73698.386908
705.623398,-10658.965565,4885.359217,-77988.521696
705.625965,-8734.430116,-296.082377,-78294.959896
705.628531,148.041188,-3404.947333,-77528.864398
705.631098,12287.418637,3108.864956,-71859.757712
705.633665,26647.413912,1776.494261,-72319.415011
705.636231,-10066.800811,4737.318029,-75843.454302
705.638798,27535.661042,-4293.194464,-75230.577904
705.641365,7105.977043,-592.164754,-77222.426198
705.643931,13915.871710,-1628.453072,-76762.768900
705.646499,-11843.295072,-444.123565,-76762.768900
705.649067,-7254.018232,14211.954086,-75077.358804
705.651634,-5921.647536,2072.576638,-75537.016103
705.654202,-2220.617826,16728.654289,-82891.532884
705.656769,13175.665768,21169.889941,-68795.375720
705.659337,110438.726546,148.041188,-59295.791545
705.661905,15396.283594,-23834.631332,-77222.426198
705.664472,-17912.983796,-20429.683999,-82278.656485
705.667040,-6513.812290,10214.842000,-73851.606007
705.669607,43376.068201,11103.089130,-71246.881314
705.672175,11103.089130,-11695.253884,-76609.549800
705.674743,-12879.583391,-2664.741391,-78294.959896
705.677310,11843.295072,13175.665768,-71859.757712
705.679878,10214.842000,6957.935855,-72166.195912
705.682445,-26647.413912,-17320.819043,-79061.055394
705.685013,-16580.613101,7994.224174,-77069.207099
705.687581,-31532.773129,-6069.688724,-78601.398095
705.690148,19985.560434,13619.789333,-70940.443115
705.692716,22502.260637,444.123565,-73085.510509
705.695283,-19245.354492,11103.089130,-75383.797003
705.697851,-1628.453072,-14508.036463,-76762.768900
705.700419,-6661.853478,12287.418637,-73238.729609
705.702986,27979.784608,8142.265362,-74004.825107
705.705554,2368.659014,8882.471304,-74311.263306
705.708121,15544.324782,-3701.029710,-75383.797003
705.710689,-19837.519246,5181.441594,-74770.920605
705.713256,14508.036463,-7105.977043,-71246.881314
705.715824,-15396.283594,-296.082377,-73851.606007
705.718392,-9326.594869,6661.853478,-75843.454302
705.720959,5773.606348,-3404.947333,-77682.083497
705.723527,-7698.141797,1480.411884,-78294.959896
705.726094,18357.107362,-6217.729913,-73545.167808
705.728662,14656.077652,6365.771101,-73391.948708
705.731230,-5477.523971,5181.441594,-75690.235202
705.733797,23834.631332,-2220.617826,-74464.482406
705.736365,18801.230927,-8882.471304,-76456.330700
705.738932,5477.523971,-3552.988522,-76609.549800
705.741500,-10066.800811,7698.141797,-76303.111601
705.744068,-10658.965565,14656.077652,-74004.825107
705.746635,11843.295072,4589.276840,-73238.729609
705.749170,9770.718434,6069.688724,-74158.044206
705.751706,25167.002028,-2072.576638,-72779.072310
705.754241,-4737.318029,-296.082377,-75230.577904
705.756776,4293.194464,18653.189738,-75537.016103
705.759311,27683.702231,740.205942,-72319.415011
705.761846,26795.455100,-6661.853478,-72932.291410
705.764382,9622.677246,4737.318029,-76303.111601
705.766917,7846.182985,2960.823768,-76609.549800
705.769452,3108.864956,-5773.606348,-75537.016103
705.771987,13471.748144,3997.112087,-71859.757712
705.774522,8586.388927,-2368.659014,-73238.729609
705.777058,-25907.207970,-1480.411884,-78141.740796
705.779593,-19985.560434,6365.771101,-79214.274493
705.782128,-32569.061448,-3701.029710,-79673.931792
705.784663,15544.324782,444.123565,-73545.167808
705.787198,17320.819043,-1776.494261,-72319.415011
705.789734,-12139.377449,13471.748144,-74158.044206
705.792269,-2368.659014,-2220.617826,-76303.111601
705.794804,8586.388927,7254.018232,-70787.224015
705.797339,33605.349767,6957.935855,-73545.167808
705.799874,-17024.736666,-296.082377,-80440.027290
705.802409,-38194.626607,-9030.512492,-81665.780087
705.804945,-32569.061448,21021.848753,-75996.673402
705.807480,148.041188,5625.565159,-71706.538613
705.810015,13471.748144,5329.482782,-74004.825107
705.812550,-19985.560434,-8586.388927,-78754.617194
705.815085,-6661.853478,4441.235652,-77069.207099
705.817621,888.247130,18505.148550,-76303.111601
705.820156,-10362.883188,1924.535449,-77375.645298
705.822691,33457.308578,-6069.688724,-72932.291410
705.825226,-8290.306550,888.247130,-75690.235202
705.827761,21317.931130,148.041188,-75230.577904
705.830297,7105.977043,1628.453072,-75843.454302
705.832832,25611.125593,-5921.647536,-74924.139704
705.835367,-6365.771101,-13471.748144,-75537.016103
705.837902,-13175.665768,15988.448347,-76915.987999
705.840437,-14656.077652,8142.265362,-76149.892501
705.842973,-5477.523971,14211.954086,-75996.673402
705.845508,49149.674549,-592.164754,-66650.308326
705.848043,64397.916954,-10807.006753,-67109.965625
705.850585,-10658.965565,-4885.359217,-79214.274493
705.853127,-19245.354492,5181.441594,-78294.959896
705.855669,17320.819043,8734.430116,-73391.948708
705.858211,43968.232955,-4145.153275,-73085.510509
705.860753,-4441.235652,-3701.029710,-77375.645298
705.863295,4441.235652,9474.636058,-76915.987999
705.865837,-26055.249158,10658.965565,-76915.987999
705.868379,11843.295072,-1628.453072,-72319.415011
705.870921,-2516.700203,-8734.430116,-75230.577904
705.873463,-12583.501014,7550.100608,-73391.948708
705.876005,3849.070898,1036.288319,-76456.330700
705.878547,-27831.743419,7254.018232,-79367.493593
705.881090,3108.864956,-11695.253884,-74311.263306
705.883632,-3849.070898,10807.006753,-72932.291410
705.886174,-18801.230927,10214.842000,-78294.959896
705.888716,-33457.308578,15840.407159,-77988.521696
705.891258,-5181.441594,9918.759623,-77528.864398
705.893800,-1776.494261,19393.395680,-75537.016103
705.896342,296.082377,12731.542202,-73545.167808
705.898884,148.041188,-7550.100608,-72625.853210
705.901426,-8734.430116,-7994.224174,-72779.072310
705.903968,-16432.571912,1776.494261,-75537.016103
705.906510,-2812.782580,5329.482782,-77835.302597
705.909052,-15396.283594,-3256.906145,-79367.493593
705.911594,24574.837274,-5477.523971,-72166.195912
705.914136,20725.766376,3256.906145,-72166.195912
705.916678,-9770.718434,17024.736666,-74617.701505
705.919220,19837.519246,-8290.306550,-74770.920605
705.921762,19097.313304,-5625.565159,-75843.454302
705.924304,15988.448347,-1480.411884,-76303.111601
705.926846,-12583.501014,17912.983796,-76456.330700
705.929388,-444.123565,-1776.494261,-76303.111601
705.931930,16432.571912,-6513.812290,-75690.235202
705.934472,-4589.276840,-13767.830521,-79367.493593
705.937014,-40415.244433,11103.089130,-78294.959896
705.939556,51962.457128,13175.665768,-67263.184724
705.942099,34049.473332,6217.729913,-73391.948708
705.944641,-1628.453072,-3108.864956,-77375.645298
705.947183,-6661.853478,6069.688724,-75383.797003
705.949725,30052.361245,6957.935855,-72625.853210
705.952273,16432.571912,-3849.070898,-74770.920605
705.954821,-2072.576638,-1924.535449,-78141.740796
705.957369,-16876.695478,5625.565159,-76149.892501
705.959917,24278.754898,2812.782580,-69867.909418
705.962465,-3701.029710,-6661.853478,-74464.482406
705.965013,-16432.571912,7994.224174,-74617.701505
705.967561,-27091.537477,-5625.565159,-81206.122788
705.970109,-23390.507767,5181.441594,-78448.178995
705.972656,25018.960840,-4441.235652,-72625.853210
705.975204,5773.606348,22798.343014,-70940.443115
705.977752,19837.519246,-1480.411884,-70787.224015
705.980300,15544.324782,-17320.819043,-74004.825107
705.982848,1036.288319,-6217.729913,-77375.645298
705.985396,-18653.189738,7994.224174,-80746.465489
705.987944,-36122.049970,22502.260637,-77988.521696
705.990492,21762.054695,-888.247130,-70787.224015
705.993040,-12139.377449,-7698.141797,-70940.443115
705.995588,8142.265362,-1924.535449,-72166.195912
705.998136,-24574.837274,2368.659014,-79827.150892
706.000684,-3552.988522,-2220.617826,-78907.836294
706.003232,18949.272115,-5329.482782,-72012.976812
706.005780,35677.926404,-888.247130,-71246.881314
706.008328,-13027.624579,7846.182985,-75077.358804
706.010876,19837.519246,-888.247130,-74311.263306
706.013424,9326.594869,-3849.070898,-75537.016103
706.015972,15100.201217,888.247130,-76762.768900
706.018520,-15396.283594,9030.512492,-77222.426198
706.021068,11547.212695,4589.276840,-74924.139704
706.023616,3108.864956,-888.247130,-74464.482406
706.026164,-2516.700203,3552.988522,-74924.139704
706.028712,6957.935855,888.247130,-76609.549800
706.031260,-13027.624579,6513.812290,-76303.111601
706.033808,24130.713709,-2220.617826,-75843.454302
706.036356,-10658.965565,5625.565159,-77069.207099
706.038904,24722.878463,-8586.388927,-73698.386908
706.041452,15248.242405,5625.565159,-73545.167808
706.044000,18653.189738,5921.647536,-74158.044206
706.046548,-1184.329507,1628.453072,-77375.645298
706.049096,-11547.212695,8734.430116,-75690.235202
706.051644,19245.354492,-1184.329507,-70940.443115
706.054197,-3108.864956,-1332.370696,-71859.757712
706.056749,-14211.954086,4737.318029,-74770.920605
706.059302,-21910.095883,2220.617826,-80286.808190
706.061854,-19541.436869,1184.329507,-79367.493593
706.064407,18505.148550,-6513.812290,-72932.291410
706.066959,8438.347739,15692.365970,-71246.881314
706.069512,30792.567187,-4441.235652,-70021.128517
706.072065,1776.494261,-23538.548956,-75077.358804
706.074617,-12287.418637,-1776.494261,-75996.673402
706.077170,15544.324782,-9030.512492,-75843.454302
706.079722,-20577.725188,6957.935855,-78754.617194
706.082275,-25463.084405,-740.205942,-76456.330700
706.084828,-14063.912898,-1184.329507,-72166.195912
706.087380,-18061.024985,4293.194464,-74770.920605
706.089933,24722.878463,6661.853478,-73085.510509
706.092485,-19689.478057,5477.523971,-79520.712692
706.095038,6957.935855,-5773.606348,-76915.987999
706.097590,29756.278868,-4293.194464,-71859.757712
706.100143,2072.576638,7105.977043,-73391.948708
706.102696,11251.130318,-3552.988522,-74617.701505
706.105248,13027.624579,-2812.782580,-76149.892501
706.107801,20281.642811,-7105.977043,-76456.330700
706.110353,-12583.501014,12139.377449,-76762.768900
