#time,accel_x,accel_y,accel_z
1746.288168,2220.617826,2812.782580,-75230.577904
1746.290719,2664.741391,3108.864956,-74770.920605
1746.293271,1776.494261,2960.823768,-75383.797003
1746.295823,1924.535449,3552.988522,-75077.358804
1746.298374,2368.659014,3404.947333,-74770.920605
1746.300926,2220.617826,2664.741391,-75077.358804
1746.303478,1184.329507,3108.864956,-74924.139704
1746.306029,2516.700203,3108.864956,-74924.139704
1746.308581,1036.288319,-13471.748144,-75843.454302
1746.311133,-2220.617826,-1924.535449,-76149.892501
1746.313684,-17764.942608,17172.777854,-77835.302597
1746.316236,-22206.178260,26943.496289,-76762.768900
1746.318787,-6809.894666,4737.318029,-75690.235202
1746.321339,9770.718434,-23538.548956,-75690.235202
1746.323891,2072.576638,1924.535449,-74464.482406
1746.326442,-7846.182985,12731.542202,-77835.302597
1746.328994,-3108.864956,6513.812290,-76456.330700
1746.331546,7402.059420,4589.276840,-72779.072310
1746.334097,15396.283594,3256.906145,-71706.538613
1746.336649,-1628.453072,-4589.276840,-76915.987999
1746.339201,-11991.336260,-3256.906145,-78294.959896
1746.341752,6809.894666,-1924.535449,-74311.263306
1746.344304,-2812.782580,13471.748144,-76303.111601
1746.346856,-13767.830521,14804.118840,-77682.083497
1746.349407,-592.164754,12731.542202,-73238.729609
1746.351959,4441.235652,2516.700203,-73545.167808
1746.354511,9178.553681,6069.688724,-74770.920605
1746.357062,-6809.894666,-4293.194464,-79367.493593
1746.359614,-10362.883188,13767.830521,-76149.892501
1746.362166,2072.576638,25167.002028,-72166.195912
1746.364717,-888.247130,13175.665768,-75537.016103
1746.367269,-5181.441594,22502.260637,-73238.729609
1746.369821,20429.683999,14211.954086,-72472.634111
1746.372372,21021.848753,16580.613101,-73391.948708
1746.374924,27979.784608,-296.082377,-70940.443115
1746.377475,39675.038491,3108.864956,-66343.870127
1746.380027,15100.201217,22354.219448,-70787.224015
1746.382579,-26055.249158,46336.891969,-77988.521696
1746.385130,-55515.445650,8438.347739,-87028.448573
1746.387682,-42043.697506,16432.571912,-84117.285680
1746.390232,-1332.370696,19541.436869,-73085.510509
1746.392782,38934.832549,31976.896694,-67109.965625
1746.395332,8586.388927,17616.901420,-72319.415011
1746.397882,-21762.054695,-2664.741391,-78448.178995
1746.400432,9178.553681,-9770.718434,-74464.482406
1746.402982,27683.702231,10066.800811,-73238.729609
1746.405532,-4145.153275,13471.748144,-76609.549800
1746.408083,-3404.947333,9474.636058,-72779.072310
1746.410633,13323.706956,12731.542202,-70327.566716
1746.413183,15396.283594,11695.253884,-73851.606007
1746.415733,8438.347739,-444.123565,-75383.797003
1746.418283,12139.377449,6069.688724,-74617.701505
1746.420833,4441.235652,6957.935855,-75077.358804
1746.423383,-6809.894666,11991.336260,-74311.263306
1746.425933,12583.501014,6217.729913,-70327.566716
1746.428483,18357.107362,-15248.242405,-72625.853210
1746.431033,-11103.089130,-2664.741391,-77682.083497
1746.433583,7105.977043,3552.988522,-75843.454302
1746.436133,16580.613101,-4589.276840,-74770.920605
1746.438683,-14508.036463,1628.453072,-75077.358804
1746.441233,-3997.112087,2072.576638,-73698.386908
1746.443783,14656.077652,10807.006753,-73545.167808
1746.446333,16284.530724,10066.800811,-75843.454302
1746.448883,-4737.318029,-2812.782580,-77528.864398
1746.451433,-14063.912898,9030.512492,-75230.577904
1746.453983,9770.718434,6957.935855,-72625.853210
1746.456534,20281.642811,-1924.535449,-71400.100414
1746.459084,4145.153275,-2368.659014,-74464.482406
1746.461634,740.205942,1184.329507,-76762.768900
1746.464184,7254.018232,6661.853478,-75077.358804
1746.466734,8142.265362,1332.370696,-75537.016103
1746.469284,-1332.370696,12139.377449,-72319.415011
1746.471834,-6809.894666,32421.020260,-75383.797003
1746.474384,-3256.906145,12731.542202,-77375.645298
1746.476934,-2812.782580,888.247130,-76915.987999
1746.479484,-16728.654289,6069.688724,-79214.274493
1746.482034,-20725.766376,-7550.100608,-77222.426198
1746.484584,-6957.935855,4293.194464,-75843.454302
1746.487134,-296.082377,-9474.636058,-78141.740796
1746.489684,-7550.100608,-2220.617826,-75537.016103
1746.492235,1332.370696,-7402.059420,-75537.016103
1746.494786,6069.688724,-1776.494261,-75537.016103
1746.497338,444.123565,3552.988522,-76303.111601
1746.499889,444.123565,-6365.771101,-74158.044206
1746.502440,22354.219448,-13619.789333,-72472.634111
1746.504991,2220.617826,-3552.988522,-75230.577904
1746.507542,-5773.606348,-4293.194464,-77528.864398
1746.510093,-19837.519246,-6513.812290,-77682.083497
1746.512645,12583.501014,5921.647536,-73391.948708
1746.515196,24130.713709,-8734.430116,-72472.634111
1746.517747,2368.659014,-10066.800811,-75843.454302
1746.520298,-21021.848753,-740.205942,-77528.864398
1746.522849,6809.894666,8734.430116,-73085.510509
1746.525400,17320.819043,11843.295072,-74464.482406
1746.527951,-19837.519246,888.247130,-78754.617194
1746.530503,12287.418637,11251.130318,-72625.853210
1746.533054,23538.548956,7402.059420,-73238.729609
1746.535605,-19541.436869,888.247130,-77682.083497
1746.538156,-17912.983796,16284.530724,-77835.302597
1746.540707,3997.112087,10955.047942,-74311.263306
1746.543258,28719.990550,296.082377,-71706.538613
1746.545810,9178.553681,4145.153275,-75690.235202
1746.548361,-11103.089130,2516.700203,-75996.673402
1746.550912,-6365.771101,6809.894666,-72625.853210
1746.553463,20873.807564,4737.318029,-72166.195912
1746.556014,8586.388927,-1776.494261,-77375.645298
1746.558565,-13619.789333,10955.047942,-77682.083497
1746.561116,-4885.359217,12583.501014,-72779.072310
1746.563668,10658.965565,25018.960840,-72319.415011
1746.566219,-1184.329507,17320.819043,-72166.195912
1746.568770,-3552.988522,17320.819043,-76915.987999
1746.571321,740.205942,11547.212695,-77528.864398
1746.573872,-5181.441594,-3404.947333,-78141.740796
1746.576423,-18801.230927,-6365.771101,-76762.768900
1746.578975,7105.977043,14952.160028,-72166.195912
1746.581526,-9030.512492,20577.725188,-75383.797003
1746.584077,-36418.132346,8882.471304,-82891.532884
1746.586628,-10658.965565,3108.864956,-76762.768900
1746.589179,19689.478057,13471.748144,-71859.757712
1746.591730,5181.441594,10955.047942,-74004.825107
1746.594283,-6513.812290,-3552.988522,-75230.577904
1746.596836,6661.853478,1776.494261,-73545.167808
1746.599389,740.205942,12139.377449,-75996.673402
1746.601942,-6809.894666,9918.759623,-77375.645298
1746.604495,-444.123565,16136.489536,-75537.016103
1746.607048,-148.041188,6809.894666,-74311.263306
1746.609600,7254.018232,1924.535449,-73391.948708
1746.612153,10362.883188,9030.512492,-73238.729609
1746.614706,-2812.782580,8142.265362,-75996.673402
1746.617259,-1480.411884,9326.594869,-74158.044206
1746.619812,23834.631332,-1480.411884,-71859.757712
1746.622365,9326.594869,-14211.954086,-75230.577904
1746.624918,-18949.272115,5033.400406,-76303.111601
1746.627471,13915.871710,5477.523971,-74158.044206
1746.630024,7105.977043,-3108.864956,-76609.549800
1746.632576,-17320.819043,-2664.741391,-77682.083497
1746.635129,-8586.388927,-1184.329507,-75690.235202
1746.637682,15396.283594,12287.418637,-73851.606007
1746.640235,2072.576638,1184.329507,-76609.549800
1746.642788,-8142.265362,-592.164754,-75996.673402
1746.645341,9770.718434,296.082377,-72319.415011
1746.647894,26055.249158,-4885.359217,-72472.634111
1746.650447,-6957.935855,-8438.347739,-76762.768900
1746.652999,-14063.912898,-3701.029710,-77528.864398
1746.655552,8290.306550,-5625.565159,-75996.673402
1746.658105,5625.565159,11547.212695,-75077.358804
1746.660658,-5329.482782,-7846.182985,-74770.920605
1746.663211,-6957.935855,54331.116143,-74924.139704
1746.665764,-9178.553681,28127.825796,-77988.521696
1746.668317,2812.782580,-3404.947333,-75996.673402
1746.670870,9918.759623,22798.343014,-74770.920605
1746.673422,2664.741391,13619.789333,-72166.195912
1746.675975,15692.365970,-12731.542202,-72932.291410
1746.678528,15248.242405,-30644.525999,-72932.291410
1746.681081,8882.471304,2368.659014,-74924.139704
1746.683634,-1332.370696,-2072.576638,-76762.768900
1746.686187,592.164754,-5625.565159,-75690.235202
1746.688740,12287.418637,-4293.194464,-73391.948708
1746.691293,-6365.771101,17764.942608,-74311.263306
1746.693846,-13619.789333,6513.812290,-77222.426198
1746.696283,-11251.130318,7402.059420,-76303.111601
1746.698720,24130.713709,-148.041188,-73238.729609
1746.701158,4737.318029,2664.741391,-75843.454302
1746.703595,-21021.848753,10362.883188,-77222.426198
1746.706033,1184.329507,8142.265362,-74004.825107
1746.708470,32717.102636,-2072.576638,-71246.881314
1746.710907,8438.347739,-12731.542202,-75537.016103
1746.713345,-15692.365970,5033.400406,-75690.235202
1746.715782,12731.542202,10066.800811,-73698.386908
1746.718219,-1924.535449,2516.700203,-76609.549800
1746.720657,-1924.535449,6809.894666,-77069.207099
1746.723094,11843.295072,6661.853478,-71093.662214
1746.725532,14804.118840,8290.306550,-73698.386908
1746.727969,-13915.871710,5773.606348,-79520.712692
1746.730406,-18949.272115,10066.800811,-77528.864398
1746.732844,9770.718434,15988.448347,-73238.729609
1746.735281,15100.201217,13915.871710,-73238.729609
1746.737719,5477.523971,-2960.823768,-74617.701505
1746.740156,-11251.130318,-1332.370696,-74770.920605
1746.742593,8734.430116,7105.977043,-73698.386908
1746.745031,20429.683999,-2812.782580,-74770.920605
1746.747468,-1480.411884,6365.771101,-76762.768900
1746.749906,-9030.512492,-9622.677246,-75537.016103
1746.752343,11843.295072,10066.800811,-72779.072310
1746.754780,18357.107362,-26351.331535,-72166.195912
1746.757218,14211.954086,-1184.329507,-73391.948708
1746.759655,-5477.523971,5329.482782,-78141.740796
1746.762093,-13471.748144,29164.114115,-78601.398095
1746.764530,-13767.830521,20281.642811,-75537.016103
1746.766967,18209.066173,-14211.954086,-71093.662214
1746.769405,31088.649564,4441.235652,-67722.842023
1746.771842,6513.812290,11399.171507,-76149.892501
1746.774280,-7402.059420,-740.205942,-78448.178995
1746.776717,14063.912898,-9770.718434,-74464.482406
1746.779154,18801.230927,1628.453072,-72625.853210
1746.781592,3108.864956,2072.576638,-74770.920605
1746.784029,-22206.178260,10658.965565,-77528.864398
1746.786466,6217.729913,14804.118840,-74464.482406
1746.788904,26647.413912,1480.411884,-72472.634111
1746.791341,11103.089130,444.123565,-73545.167808
1746.793818,-6513.812290,-5033.400406,-77528.864398
1746.796295,-3997.112087,8438.347739,-74617.701505
1746.798772,14508.036463,7254.018232,-71859.757712
1746.801249,15544.324782,-4293.194464,-74617.701505
1746.803726,-24130.713709,-8586.388927,-79520.712692
1746.806203,-4589.276840,7105.977043,-76149.892501
1746.808681,19393.395680,1332.370696,-74464.482406
1746.811158,-6217.729913,5329.482782,-76303.111601
1746.813635,-12287.418637,4589.276840,-74464.482406
1746.816112,16580.613101,3404.947333,-72625.853210
1746.818589,9030.512492,-7254.018232,-76762.768900
1746.821066,-13471.748144,-7698.141797,-78601.398095
1746.823543,9030.512492,-4737.318029,-74158.044206
1746.826020,15396.283594,-1184.329507,-72625.853210
1746.828497,-16580.613101,5477.523971,-75996.673402
1746.830974,-9770.718434,2812.782580,-74770.920605
1746.833451,21614.013506,-296.082377,-73085.510509
1746.835928,10658.965565,1036.288319,-76149.892501
1746.838405,-7994.224174,13767.830521,-76149.892501
1746.840882,-8734.430116,15692.365970,-74004.825107
1746.843359,-2960.823768,20133.601622,-73085.510509
1746.845836,6365.771101,11991.336260,-75077.358804
1746.848313,7402.059420,11843.295072,-75230.577904
1746.850790,-888.247130,-10510.924376,-76609.549800
1746.853267,-8586.388927,-18949.272115,-77222.426198
1746.855744,-444.123565,-1332.370696,-75383.797003
1746.858221,0.000000,-13323.706956,-74004.825107
1746.860698,148.041188,-9622.677246,-75537.016103
1746.863175,3997.112087,-592.164754,-75690.235202
1746.865652,11251.130318,-4145.153275,-75383.797003
1746.868129,-3256.906145,2368.659014,-77069.207099
1746.870606,-26351.331535,0.000000,-75690.235202
1746.873083,-19689.478057,2664.741391,-76762.768900
1746.875560,23834.631332,296.082377,-72779.072310
1746.878037,9918.759623,-1036.288319,-75996.673402
1746.880515,-27683.702231,2368.659014,-79061.055394
1746.882992,-2072.576638,9178.553681,-74924.139704
1746.885469,37898.544230,-2960.823768,-70940.443115
1746.887946,7402.059420,-14656.077652,-74924.139704
1746.890423,-18357.107362,2516.700203,-74617.701505
1746.892928,13175.665768,12731.542202,-73851.606007
1746.895434,-10066.800811,8734.430116,-78907.836294
1746.897940,-9030.512492,12287.418637,-76609.549800
1746.900446,10510.924376,7254.018232,-70940.443115
1746.902952,16580.613101,4293.194464,-72166.195912
1746.905458,-14063.912898,10362.883188,-77682.083497
1746.907963,-18653.189738,13323.706956,-76456.330700
1746.910469,16580.613101,10807.006753,-73545.167808
1746.912975,17024.736666,3108.864956,-74770.920605
1746.915481,-5625.565159,-444.123565,-75383.797003
1746.917987,-6069.688724,7254.018232,-72319.415011
1746.920493,20133.601622,5921.647536,-72166.195912
1746.922998,3552.988522,1184.329507,-76762.768900
1746.925504,-14656.077652,-2516.700203,-78754.617194
1746.928010,6661.853478,26943.496289,-73391.948708
1746.930516,17468.860231,6069.688724,-72625.853210
1746.933022,-1184.329507,19097.313304,-74158.044206
1746.935528,21614.013506,-1776.494261,-72012.976812
1746.938033,24426.796086,11843.295072,-72166.195912
1746.940539,7254.018232,5033.400406,-74770.920605
1746.943045,16432.571912,-10658.965565,-73545.167808
1746.945551,22650.301825,-14508.036463,-68642.156621
1746.948057,11991.336260,5773.606348,-71859.757712
1746.950563,-3552.988522,4589.276840,-77375.645298
1746.953068,-1184.329507,-6809.894666,-76303.111601
1746.955574,13175.665768,17320.819043,-73851.606007
1746.958080,2812.782580,24426.796086,-75230.577904
1746.960586,-8290.306550,5921.647536,-75690.235202
1746.963092,-7994.224174,8586.388927,-75383.797003
1746.965598,7402.059420,7698.141797,-72472.634111
1746.968103,17764.942608,9622.677246,-73238.729609
1746.970609,4737.318029,7402.059420,-76915.987999
1746.973115,-7550.100608,1036.288319,-77222.426198
1746.975621,8734.430116,4589.276840,-70787.224015
1746.978127,33161.226202,-1036.288319,-70021.128517
1746.980633,-8882.471304,-16136.489536,-77682.083497
1746.983138,-17468.860231,1332.370696,-77682.083497
1746.985644,18801.230927,7105.977043,-75537.016103
1746.988150,-3256.906145,8734.430116,-76456.330700
1746.990656,-4589.276840,1924.535449,-72012.976812
1746.993182,5329.482782,2960.823768,-71859.757712
1746.995708,11843.295072,1332.370696,-74924.139704
1746.998233,-7994.224174,-6809.894666,-77988.521696
1747.000759,2664.741391,-2960.823768,-75383.797003
1747.003285,17172.777854,5181.441594,-72472.634111
1747.005811,-5329.482782,-2516.700203,-75077.358804
1747.008337,-2812.782580,-6513.812290,-73545.167808
1747.010862,20429.683999,-740.205942,-72472.634111
1747.013388,14508.036463,3701.029710,-76762.768900
1747.015914,-11547.212695,-15544.324782,-76609.549800
1747.018440,-10658.965565,-2220.617826,-76762.768900
1747.020966,-5625.565159,30052.361245,-72932.291410
1747.023491,2516.700203,2072.576638,-73698.386908
1747.026017,-148.041188,-23982.672521,-77528.864398
1747.028543,-1480.411884,-43376.068201,-78141.740796
1747.031069,-2812.782580,148.041188,-76149.892501
1747.033595,-9178.553681,2072.576638,-77528.864398
1747.036120,-12731.542202,-2812.782580,-75843.454302
1747.038646,-4145.153275,-5033.400406,-74924.139704
1747.041172,6513.812290,6661.853478,-73545.167808
1747.043698,18949.272115,1480.411884,-74464.482406
1747.046224,5477.523971,-11547.212695,-76456.330700
1747.048749,-17764.942608,-5921.647536,-77682.083497
1747.051275,4441.235652,10362.883188,-72779.072310
1747.053801,16728.654289,2516.700203,-72472.634111
1747.056327,12731.542202,-6069.688724,-75383.797003
1747.058853,-19541.436869,-8734.430116,-79367.493593
1747.061378,-12583.501014,20429.683999,-76609.549800
1747.063904,19541.436869,6661.853478,-73085.510509
1747.066430,-2664.741391,-444.123565,-74617.701505
1747.068956,-5329.482782,-296.082377,-74004.825107
1747.071482,7846.182985,9474.636058,-75077.358804
1747.074007,-14211.954086,296.082377,-79061.055394
1747.076533,-2072.576638,8142.265362,-74924.139704
1747.079059,15840.407159,5181.441594,-71859.757712
1747.081585,-1776.494261,5329.482782,-74004.825107
1747.084111,-18209.066173,9326.594869,-78448.178995
1747.086636,-13619.789333,13471.748144,-77069.207099
1747.089162,18653.189738,13915.871710,-72012.976812
1747.091688,5181.441594,-1776.494261,-75537.016103
1747.094229,-15248.242405,2812.782580,-76915.987999
1747.096769,13619.789333,-296.082377,-74004.825107
1747.099310,14508.036463,148.041188,-74924.139704
1747.101850,-4589.276840,-15544.324782,-76149.892501
1747.104391,2812.782580,-15396.283594,-74158.044206
1747.106931,9030.512492,-1924.535449,-74158.044206
1747.109472,-5181.441594,296.082377,-76609.549800
1747.112013,-11695.253884,-6513.812290,-79367.493593
1747.114553,3108.864956,-1924.535449,-75996.673402
1747.117094,22946.384202,-11251.130318,-71706.538613
1747.119634,24722.878463,740.205942,-69561.471218
1747.122175,4885.359217,19837.519246,-73851.606007
1747.124716,-6217.729913,3552.988522,-77375.645298
1747.127256,14508.036463,-15840.407159,-75230.577904
1747.129797,-2220.617826,1480.411884,-74924.139704
1747.132337,-6957.935855,27091.537477,-74770.920605
1747.134878,13471.748144,9326.594869,-73851.606007
1747.137419,1480.411884,-5033.400406,-76609.549800
1747.139959,-17764.942608,592.164754,-77375.645298
1747.142500,9326.594869,8438.347739,-73238.729609
1747.145040,13175.665768,17616.901420,-72472.634111
1747.147581,6809.894666,5625.565159,-75843.454302
1747.150121,-16876.695478,-740.205942,-77835.302597
1747.152662,-444.123565,10066.800811,-72319.415011
1747.155203,24574.837274,-9030.512492,-72932.291410
1747.157743,-10214.842000,-3849.070898,-78601.398095
1747.160284,-1332.370696,1776.494261,-75996.673402
1747.162824,17912.983796,-1184.329507,-74617.701505
1747.165365,-18949.272115,-1184.329507,-77069.207099
1747.167906,-5625.565159,-2812.782580,-74311.263306
1747.170446,12731.542202,9326.594869,-74617.701505
1747.172987,-5181.441594,-3404.947333,-78601.398095
1747.175539,-11251.130318,2220.617826,-77528.864398
1747.178091,-1776.494261,888.247130,-74004.825107
1747.180643,1036.288319,11843.295072,-74464.482406
1747.183195,-8438.347739,-3997.112087,-75996.673402
1747.185747,16284.530724,3108.864956,-74158.044206
1747.188299,15692.365970,-17912.983796,-75383.797003
1747.190851,-12435.459826,4441.235652,-77375.645298
1747.193403,-22354.219448,32272.979071,-77682.083497
1747.195955,-13323.706956,19393.395680,-76609.549800
1747.198507,-5625.565159,-10362.883188,-75077.358804
1747.201059,296.082377,6809.894666,-76149.892501
1747.203611,-12139.377449,24722.878463,-78448.178995
1747.206163,-9326.594869,148.041188,-78294.959896
1747.208715,-18505.148550,-6809.894666,-76762.768900
1747.211267,5181.441594,-11399.171507,-71859.757712
1747.213819,38638.750172,-11103.089130,-70174.347617
1747.216371,-5625.565159,-148.041188,-76762.768900
1747.218923,-30348.443622,4885.359217,-79673.931792
1747.221475,22502.260637,-6069.688724,-74004.825107
1747.224027,10955.047942,-10807.006753,-74004.825107
1747.226579,-25315.043216,7994.224174,-76609.549800
1747.229131,11103.089130,-6217.729913,-74311.263306
1747.231683,17172.777854,-12583.501014,-75230.577904
1747.234235,-15840.407159,1628.453072,-76149.892501
1747.236787,-14063.912898,10362.883188,-74617.701505
1747.239339,19097.313304,19097.313304,-71859.757712
1747.241891,-10510.924376,3108.864956,-76609.549800
1747.244443,6809.894666,15396.283594,-74158.044206
1747.246995,28423.908173,12583.501014,-72166.195912
1747.249547,-17764.942608,2960.823768,-78141.740796
1747.252099,-10807.006753,12583.501014,-75230.577904
1747.254651,28275.866984,-2072.576638,-71246.881314
1747.257204,8290.306550,-7402.059420,-75843.454302
1747.259756,-18505.148550,8882.471304,-78141.740796
1747.262308,2368.659014,16284.530724,-73238.729609
1747.264860,9622.677246,1036.288319,-74004.825107
1747.267412,-2368.659014,-6217.729913,-77375.645298
1747.269964,2072.576638,3404.947333,-75690.235202
1747.272516,6957.935855,6513.812290,-74004.825107
1747.275068,6661.853478,-6809.894666,-74311.263306
1747.277627,16432.571912,-22946.384202,-71553.319513
1747.280185,11399.171507,-10807.006753,-71859.757712
1747.282744,-3404.947333,1628.453072,-77988.521696
1747.285303,-7254.018232,-23982.672521,-78907.836294
1747.287862,-1480.411884,-5181.441594,-75996.673402
1747.290421,-7698.141797,24130.713709,-75690.235202
1747.292980,-16284.530724,16876.695478,-76149.892501
1747.295539,-5625.565159,-10510.924376,-76609.549800
1747.298097,-3108.864956,-4293.194464,-76149.892501
1747.300656,10362.883188,17320.819043,-73085.510509
1747.303215,-740.205942,20725.766376,-75077.358804
1747.305774,-11547.212695,9030.512492,-75843.454302
1747.308333,14359.995275,2220.617826,-72319.415011
1747.310892,19689.478057,1184.329507,-72166.195912
1747.313451,-4885.359217,-2960.823768,-77682.083497
1747.316010,-7402.059420,8882.471304,-76303.111601
1747.318568,19393.395680,8290.306550,-72625.853210
1747.321127,4737.318029,-1480.411884,-76149.892501
1747.323686,-35677.926404,-1184.329507,-79214.274493
1747.326245,3108.864956,1628.453072,-74924.139704
1747.328804,16432.571912,5921.647536,-75077.358804
1747.331363,3108.864956,8882.471304,-75383.797003
1747.333922,1184.329507,2072.576638,-73085.510509
1747.336481,15396.283594,3849.070898,-71859.757712
1747.339039,-1924.535449,-11991.336260,-75996.673402
1747.341598,-5921.647536,-2812.782580,-77528.864398
1747.344157,17024.736666,10066.800811,-75383.797003
1747.346716,296.082377,-740.205942,-76149.892501
1747.349275,-10658.965565,-3404.947333,-76149.892501
1747.351834,-5773.606348,14508.036463,-75077.358804
1747.354393,3108.864956,5773.606348,-74464.482406
1747.356951,18801.230927,-10362.883188,-75077.358804
1747.359510,11991.336260,-17912.983796,-75230.577904
1747.362069,2516.700203,-1480.411884,-76149.892501
1747.364628,-18357.107362,5477.523971,-77222.426198
1747.367187,-14211.954086,-2072.576638,-76149.892501
1747.369746,2516.700203,19689.478057,-75537.016103
1747.372305,3997.112087,9770.718434,-75690.235202
1747.374864,1332.370696,19097.313304,-75383.797003
1747.377422,3256.906145,-4589.276840,-74617.701505
1747.379987,-6661.853478,7994.224174,-75537.016103
1747.382552,-15840.407159,6217.729913,-77835.302597
1747.385117,8586.388927,1776.494261,-74464.482406
1747.387681,8734.430116,-1924.535449,-73391.948708
1747.390246,5181.441594,5181.441594,-73238.729609
1747.392811,3849.070898,2516.700203,-75230.577904
1747.395375,-7254.018232,-740.205942,-78141.740796
1747.397940,-15544.324782,-740.205942,-76303.111601
1747.400505,22502.260637,13323.706956,-70940.443115
1747.403069,17172.777854,-4293.194464,-74464.482406
1747.405634,-18209.066173,-4145.153275,-77222.426198
1747.408199,4737.318029,5921.647536,-74617.701505
1747.410763,-296.082377,11251.130318,-76456.330700
1747.413328,-7698.141797,6365.771101,-75537.016103
1747.415893,22502.260637,9474.636058,-71093.662214
1747.418458,-2220.617826,7698.141797,-75230.577904
1747.421022,-11843.295072,7550.100608,-78141.740796
1747.423587,-16728.654289,11991.336260,-77528.864398
1747.426152,25167.002028,5181.441594,-71706.538613
1747.428716,16728.654289,3701.029710,-73085.510509
1747.431281,-11991.336260,21169.889941,-75537.016103
1747.433846,-1924.535449,7994.224174,-75383.797003
1747.436410,1628.453072,2516.700203,-75077.358804
1747.438975,5181.441594,-9770.718434,-75843.454302
1747.441540,6513.812290,6513.812290,-74770.920605
1747.444105,6957.935855,-8882.471304,-74464.482406
1747.446669,-1480.411884,12435.459826,-73085.510509
1747.449234,-3256.906145,-19393.395680,-74617.701505
1747.451799,17912.983796,-2812.782580,-75537.016103
1747.454363,4293.194464,-592.164754,-76609.549800
1747.456928,-13323.706956,37454.420665,-76609.549800
1747.459493,-7550.100608,15988.448347,-74770.920605
1747.462057,11103.089130,12287.418637,-72932.291410
1747.464622,-4885.359217,7105.977043,-75537.016103
1747.467187,-8438.347739,6957.935855,-76456.330700
1747.469752,18801.230927,3108.864956,-73698.386908
1747.472316,6957.935855,6809.894666,-75690.235202
1747.474881,-6661.853478,6217.729913,-74617.701505
1747.477446,11843.295072,6661.853478,-71859.757712
1747.480010,4589.276840,7846.182985,-75690.235202
1747.482576,-2516.700203,5625.565159,-77988.521696
1747.485143,-5477.523971,8438.347739,-75230.577904
1747.487711,24278.754898,3701.029710,-70634.004916
1747.490278,9770.718434,-17616.901420,-74158.044206
1747.492845,-17024.736666,-592.164754,-77835.302597
1747.495413,11251.130318,7254.018232,-75383.797003
1747.497980,-740.205942,6661.853478,-76456.330700
1747.500547,-5773.606348,2368.659014,-74004.825107
1747.503115,21465.972318,1036.288319,-71859.757712
1747.505682,1628.453072,-14063.912898,-75996.673402
1747.508250,-7994.224174,-1036.288319,-76149.892501
1747.510817,18061.024985,2072.576638,-74924.139704
1747.513384,5625.565159,-3108.864956,-71706.538613
1747.515952,2812.782580,-11251.130318,-74004.825107
1747.518519,-7846.182985,6957.935855,-75690.235202
1747.521087,-1628.453072,-9622.677246,-76149.892501
1747.523654,10658.965565,-5329.482782,-74311.263306
1747.526221,1628.453072,10066.800811,-77682.083497
1747.528789,-27387.619854,32569.061448,-77682.083497
1747.531356,-25167.002028,9030.512492,-77835.302597
1747.533923,9918.759623,-46929.056723,-75077.358804
1747.536491,26203.290347,-24722.878463,-73085.510509
1747.539058,0.000000,17320.819043,-78754.617194
1747.541626,-33901.432144,-21317.931130,-80133.589091
1747.544193,-21614.013506,-28275.866984,-78294.959896
1747.546760,9918.759623,-17912.983796,-74311.263306
1747.549328,24574.837274,3108.864956,-72166.195912
1747.551895,-11251.130318,13471.748144,-77069.207099
1747.554462,-19097.313304,-740.205942,-77069.207099
1747.557030,18209.066173,-5329.482782,-72319.415011
1747.559597,18357.107362,2368.659014,-73391.948708
1747.562165,-26351.331535,-1924.535449,-79214.274493
1747.564732,2516.700203,10066.800811,-74311.263306
1747.567299,26203.290347,-2960.823768,-73238.729609
1747.569867,-14804.118840,740.205942,-76149.892501
1747.572434,4441.235652,4293.194464,-73085.510509
1747.575001,3404.947333,7550.100608,-74770.920605
1747.577569,-13027.624579,-3997.112087,-78141.740796
1747.580136,-1184.329507,9474.636058,-74311.263306
1747.582704,21021.848753,5033.400406,-71093.662214
1747.585273,-5033.400406,3997.112087,-76303.111601
1747.587843,-17616.901420,11991.336260,-77375.645298
1747.590413,19689.478057,8734.430116,-73238.729609
1747.592983,17172.777854,4441.235652,-72779.072310
1747.595553,-9474.636058,11399.171507,-75383.797003
1747.598123,-5181.441594,-2812.782580,-75230.577904
1747.600692,5773.606348,4589.276840,-74464.482406
1747.603262,6957.935855,-13619.789333,-75383.797003
1747.605832,15248.242405,-19837.519246,-74464.482406
1747.608402,17616.901420,-21021.848753,-70634.004916
1747.610972,1036.288319,-6217.729913,-72472.634111
1747.613542,-7402.059420,-17764.942608,-76456.330700
1747.616111,-888.247130,2664.741391,-77835.302597
1747.618681,-13915.871710,28275.866984,-77988.521696
1747.621251,-19689.478057,14508.036463,-78448.178995
1747.623821,-148.041188,26351.331535,-72625.853210
1747.626391,-4589.276840,18357.107362,-74464.482406
1747.628960,-13619.789333,3849.070898,-77375.645298
1747.631530,5477.523971,1628.453072,-75383.797003
1747.634100,8734.430116,6217.729913,-74924.139704
1747.636670,-4293.194464,10658.965565,-74464.482406
1747.639240,-5033.400406,7846.182985,-74924.139704
1747.641810,16136.489536,5625.565159,-72472.634111
1747.644379,1628.453072,3404.947333,-75843.454302
1747.646949,-6513.812290,2072.576638,-75537.016103
1747.649519,22798.343014,-444.123565,-72166.195912
1747.652089,-1480.411884,-14211.954086,-76303.111601
1747.654659,-23390.507767,7254.018232,-77835.302597
1747.657229,13915.871710,5477.523971,-74617.701505
1747.659798,740.205942,3108.864956,-75690.235202
1747.662368,-888.247130,2664.741391,-72779.072310
1747.664938,20725.766376,1332.370696,-72625.853210
1747.667508,-5921.647536,-11843.295072,-75383.797003
1747.670078,-13323.706956,-444.123565,-77069.207099
1747.672648,10066.800811,888.247130,-75383.797003
1747.675217,14359.995275,1776.494261,-73545.167808
1747.677787,-6809.894666,-2960.823768,-74464.482406
1747.680357,-9474.636058,-7846.182985,-76762.768900
1747.682927,5773.606348,9326.594869,-77069.207099
1747.685497,-18061.024985,25315.043216,-79214.274493
1747.688069,-16580.613101,39230.914926,-76149.892501
1747.690641,8734.430116,26203.290347,-72166.195912
1747.693212,11843.295072,-9178.553681,-70634.004916
1747.695784,2960.823768,-1332.370696,-74770.920605
1747.698356,-14656.077652,30496.484810,-78601.398095
1747.700928,-15692.365970,-6365.771101,-80899.684589
1747.703500,-34789.679274,-14952.160028,-80440.027290
1747.706072,1184.329507,-6957.935855,-73851.606007
1747.708644,23982.672521,3404.947333,-70480.785816
1747.711216,-3701.029710,296.082377,-76609.549800
1747.713788,-9030.512492,1924.535449,-77222.426198
1747.716360,14656.077652,-8438.347739,-74464.482406
1747.718932,3849.070898,888.247130,-74004.825107
1747.721504,-8586.388927,1776.494261,-74617.701505
1747.724076,18209.066173,1184.329507,-72779.072310
1747.726648,2516.700203,-12583.501014,-75843.454302
1747.729219,-4737.318029,6069.688724,-77528.864398
1747.731791,9770.718434,4589.276840,-73698.386908
1747.734363,592.164754,10362.883188,-76456.330700
1747.736935,-21021.848753,11251.130318,-77835.302597
1747.739507,27979.784608,10214.842000,-69408.252119
1747.742079,7550.100608,5921.647536,-73545.167808
1747.744651,-28423.908173,14804.118840,-79061.055394
1747.747223,6217.729913,2368.659014,-74464.482406
1747.749795,20725.766376,2368.659014,-74617.701505
1747.752367,-13175.665768,1184.329507,-77988.521696
1747.754939,-6217.729913,10066.800811,-72932.291410
1747.757511,8290.306550,13471.748144,-71400.100414
1747.760083,10955.047942,4293.194464,-74311.263306
1747.762655,6809.894666,-20725.766376,-78448.178995
1747.765227,-10658.965565,21317.931130,-76762.768900
1747.767798,-20429.683999,27979.784608,-77682.083497
1747.770370,-10362.883188,8882.471304,-75230.577904
1747.772942,5033.400406,22206.178260,-72166.195912
1747.775514,6365.771101,24574.837274,-75230.577904
1747.778086,-2960.823768,1924.535449,-76762.768900
1747.780658,10807.006753,16284.530724,-73698.386908
1747.783230,11843.295072,9326.594869,-71859.757712
1747.785802,3404.947333,13471.748144,-71246.881314
1747.788374,6809.894666,6069.688724,-73391.948708
1747.790946,8586.388927,-5181.441594,-74311.263306
1747.793518,17912.983796,1184.329507,-73545.167808
1747.796090,21021.848753,5773.606348,-72166.195912
1747.798662,-888.247130,2516.700203,-74464.482406
1747.801234,-6513.812290,20725.766376,-74158.044206
1747.803806,16876.695478,6365.771101,-72472.634111
1747.806378,0.000000,0.000000,-76762.768900
1747.808950,-26499.372724,1036.288319,-78754.617194
1747.811522,16432.571912,-1036.288319,-74464.482406
1747.814095,11103.089130,-5181.441594,-75383.797003
1747.816667,-2516.700203,-592.164754,-73851.606007
1747.819239,19837.519246,-2516.700203,-72319.415011
1747.821811,-9474.636058,-6809.894666,-77682.083497
1747.824383,-16284.530724,-11103.089130,-77988.521696
1747.826955,3404.947333,2960.823768,-76149.892501
1747.829527,8438.347739,-148.041188,-77069.207099
1747.832099,-9178.553681,6365.771101,-75077.358804
1747.834671,-2220.617826,6217.729913,-73085.510509
1747.837243,14656.077652,6069.688724,-72166.195912
1747.839815,1628.453072,-22798.343014,-76456.330700
1747.842387,-6217.729913,-9030.512492,-79061.055394
1747.844959,-888.247130,-19985.560434,-75843.454302
1747.847531,7846.182985,7105.977043,-74158.044206
1747.850103,148.041188,23390.507767,-74004.825107
1747.852675,-10658.965565,-28423.908173,-76609.549800
1747.855248,-23390.507767,-21465.972318,-79367.493593
1747.857820,-3108.864956,15692.365970,-75383.797003
1747.860392,34789.679274,23982.672521,-70634.004916
1747.862964,3404.947333,14211.954086,-73851.606007
1747.865536,-20281.642811,-11695.253884,-75690.235202
1747.868108,12731.542202,-9474.636058,-73851.606007
1747.870680,6217.729913,-3997.112087,-75843.454302
1747.873252,-148.041188,3552.988522,-77222.426198
1747.875824,7254.018232,592.164754,-76915.987999
1747.878396,-17320.819043,1480.411884,-76149.892501
1747.880968,3108.864956,21169.889941,-71706.538613
1747.883540,26499.372724,-740.205942,-71859.757712
1747.886112,-14211.954086,-1184.329507,-76456.330700
1747.888684,-11547.212695,3256.906145,-77682.083497
1747.891256,20429.683999,11695.253884,-73698.386908
1747.893829,-6069.688724,592.164754,-75537.016103
1747.896402,-7698.141797,4293.194464,-72472.634111
1747.898975,21910.095883,-740.205942,-70940.443115
1747.901547,-2960.823768,5181.441594,-78294.959896
1747.904120,-17172.777854,10658.965565,-79520.712692
1747.906693,24278.754898,2812.782580,-72625.853210
1747.909265,11547.212695,9326.594869,-73851.606007
1747.911838,-17172.777854,8734.430116,-75996.673402
1747.914411,-1628.453072,13175.665768,-71706.538613
1747.916984,7994.224174,-11695.253884,-75537.016103
1747.919556,6069.688724,-19689.478057,-78754.617194
1747.922129,-4145.153275,-11991.336260,-77682.083497
1747.924702,-6809.894666,2072.576638,-74158.044206
1747.927274,-1332.370696,23390.507767,-71246.881314
1747.929847,5181.441594,23390.507767,-74158.044206
1747.932420,6365.771101,-2812.782580,-76456.330700
1747.934993,-5773.606348,30200.402434,-77375.645298
1747.937565,-10510.924376,42783.903448,-76609.549800
1747.940138,888.247130,25018.960840,-72779.072310
1747.942711,12435.459826,444.123565,-71246.881314
1747.945284,9474.636058,-5329.482782,-71706.538613
1747.947856,17616.901420,-5921.647536,-73851.606007
1747.950429,15100.201217,5033.400406,-74617.701505
1747.953002,444.123565,5329.482782,-76762.768900
1747.955574,-10658.965565,20133.601622,-74617.701505
1747.958147,15840.407159,9918.759623,-71400.100414
1747.960720,4737.318029,1924.535449,-74464.482406
1747.963293,-29608.237680,592.164754,-78601.398095
1747.965865,16284.530724,-3108.864956,-75230.577904
1747.968438,15396.283594,-3701.029710,-75690.235202
1747.971011,-6217.729913,1776.494261,-75690.235202
1747.973583,15544.324782,-4885.359217,-72166.195912
1747.976156,-6809.894666,-5329.482782,-75077.358804
1747.978729,-14952.160028,-11695.253884,-78141.740796
1747.981302,2072.576638,1332.370696,-77988.521696
1747.983874,3849.070898,-3849.070898,-78141.740796
1747.986447,-4737.318029,-3849.070898,-74464.482406
1747.989020,6513.812290,5033.400406,-71706.538613
1747.991592,10658.965565,-10066.800811,-72779.072310
1747.994165,-1332.370696,-21021.848753,-75383.797003
1747.996681,6661.853478,-32272.979071,-79827.150892
1747.999196,9030.512492,-14359.995275,-77682.083497
1748.001712,1628.453072,-4589.276840,-75077.358804
1748.004228,-1628.453072,-25463.084405,-75230.577904
1748.006743,-9326.594869,-32865.143825,-75077.358804
1748.009259,-6513.812290,-5181.441594,-78754.617194
1748.011774,9622.677246,-6365.771101,-77069.207099
1748.014290,1776.494261,-5625.565159,-78141.740796
1748.016806,-3256.906145,-5329.482782,-74770.920605
1748.019321,2812.782580,-5329.482782,-73238.729609
1748.021837,-296.082377,4145.153275,-72472.634111
1748.024352,14952.160028,4145.153275,-73391.948708
1748.026868,10510.924376,-6809.894666,-77988.521696
1748.029383,-14359.995275,-7105.977043,-78448.178995
1748.031899,17024.736666,4885.359217,-71553.319513
1748.034415,7698.141797,-592.164754,-72472.634111
1748.036930,-17764.942608,5181.441594,-74004.825107
1748.039446,3701.029710,4293.194464,-75077.358804
1748.041961,7550.100608,7994.224174,-78141.740796
1748.044477,-16432.571912,7254.018232,-79061.055394
1748.046993,11399.171507,11103.089130,-71706.538613
1748.049508,7550.100608,7105.977043,-72012.976812
1748.052024,-15692.365970,12583.501014,-77222.426198
1748.054539,-2220.617826,2960.823768,-75690.235202
1748.057055,6365.771101,6513.812290,-77375.645298
1748.059571,-14359.995275,3997.112087,-79520.712692
1748.062086,-2220.617826,7550.100608,-73391.948708
1748.064602,14508.036463,1776.494261,-69408.252119
1748.067117,6365.771101,13471.748144,-72625.853210
1748.069633,-1184.329507,17912.983796,-75690.235202
1748.072149,-10955.047942,30348.443622,-77222.426198
1748.074664,-15544.324782,17024.736666,-79367.493593
1748.077180,-2960.823768,-29016.072926,-75843.454302
1748.079695,2368.659014,-18209.066173,-72319.415011
1748.082211,-25315.043216,48409.468607,-77069.207099
1748.084727,-21021.848753,16580.613101,-79673.931792
1748.087242,19837.519246,-23538.548956,-75843.454302
1748.089758,14211.954086,-15100.201217,-74617.701505
1748.092273,-18209.066173,18653.189738,-76456.330700
1748.094789,-14359.995275,24870.919651,-76149.892501
1748.097318,-11103.089130,4885.359217,-75690.235202
1748.099848,8438.347739,-5477.523971,-76609.549800
1748.102377,17024.736666,12731.542202,-73851.606007
1748.104907,-4145.153275,10362.883188,-78601.398095
1748.107436,-16728.654289,4589.276840,-75996.673402
1748.109966,31976.896694,-3256.906145,-67263.184724
1748.112495,13027.624579,-17172.777854,-73085.510509
1748.115025,-27091.537477,3552.988522,-79827.150892
1748.117554,7698.141797,6661.853478,-77375.645298
1748.120084,5773.606348,444.123565,-77069.207099
1748.122613,740.205942,-2812.782580,-72319.415011
1748.125143,13175.665768,5329.482782,-70327.566716
1748.127672,-2664.741391,-3849.070898,-74924.139704
1748.130202,-740.205942,-1628.453072,-78294.959896
1748.132731,8882.471304,-2812.782580,-77682.083497
1748.135260,-5921.647536,1332.370696,-76609.549800
1748.137790,-16580.613101,7846.182985,-73851.606007
1748.140319,5625.565159,18209.066173,-73698.386908
1748.142849,3404.947333,8290.306550,-75383.797003
1748.145378,-7698.141797,28719.990550,-77069.207099
1748.147908,2368.659014,24574.837274,-76456.330700
1748.150437,8734.430116,-13471.748144,-74617.701505
1748.152967,8290.306550,-23834.631332,-73085.510509
1748.155496,1332.370696,14359.995275,-76149.892501
1748.158026,-19097.313304,-11103.089130,-78601.398095
1748.160555,-1924.535449,-18949.272115,-76609.549800
1748.163085,10066.800811,-4589.276840,-74924.139704
1748.165614,16432.571912,444.123565,-73391.948708
1748.168144,-19985.560434,2812.782580,-75383.797003
1748.170673,-1776.494261,6365.771101,-73545.167808
1748.173203,25463.084405,-3108.864956,-72932.291410
1748.175732,-2516.700203,-5181.441594,-75690.235202
1748.178262,9326.594869,8290.306550,-74311.263306
1748.180791,11695.253884,-3997.112087,-75230.577904
1748.183320,-13323.706956,-5625.565159,-75230.577904
1748.185850,9178.553681,8882.471304,-72319.415011
1748.188379,-4293.194464,15692.365970,-75996.673402
1748.190909,-11547.212695,10807.006753,-77988.521696
1748.193438,4589.276840,2368.659014,-75077.358804
1748.195968,20577.725188,592.164754,-72166.195912
1748.198507,-15692.365970,12139.377449,-76609.549800
1748.201047,-12435.459826,3849.070898,-76149.892501
1748.203587,9622.677246,7402.059420,-74617.701505
1748.206126,-6957.935855,10658.965565,-76915.987999
1748.208666,-2220.617826,9622.677246,-75077.358804
1748.211206,7846.182985,6661.853478,-72472.634111
1748.213745,2664.741391,1776.494261,-75383.797003
1748.216285,-11547.212695,13323.706956,-78754.617194
1748.218825,-19245.354492,39823.079680,-78294.959896
1748.221364,4441.235652,10807.006753,-73698.386908
1748.223904,-3849.070898,26499.372724,-75383.797003
1748.226444,-8438.347739,16284.530724,-75383.797003
1748.228983,1776.494261,28868.031738,-73238.729609
1748.231523,9918.759623,13323.706956,-76303.111601
1748.234063,-4737.318029,5625.565159,-74924.139704
1748.236602,-8142.265362,3997.112087,-75843.454302
1748.239142,-4589.276840,19837.519246,-74924.139704
1748.241681,5773.606348,9622.677246,-73238.729609
1748.244221,16580.613101,4737.318029,-72932.291410
1748.246761,1036.288319,3701.029710,-74924.139704
1748.249300,-7550.100608,16876.695478,-75383.797003
1748.251840,12879.583391,11399.171507,-72779.072310
1748.254380,148.041188,-3404.947333,-73698.386908
1748.256919,-21021.848753,-1776.494261,-77528.864398
1748.259459,-1332.370696,10214.842000,-75843.454302
1748.261999,11695.253884,1332.370696,-76303.111601
1748.264538,-6069.688724,-3108.864956,-75690.235202
1748.267078,18209.066173,1036.288319,-71859.757712
1748.269618,7254.018232,-2220.617826,-73545.167808
1748.272157,-11399.171507,-8882.471304,-75843.454302
1748.274697,2072.576638,-10066.800811,-77375.645298
1748.277237,1036.288319,1628.453072,-75843.454302
1748.279776,8586.388927,5921.647536,-73698.386908
1748.282316,15396.283594,-1036.288319,-72625.853210
1748.284855,15988.448347,13619.789333,-72012.976812
1748.287395,3997.112087,12435.459826,-74464.482406
1748.289935,2812.782580,8882.471304,-74770.920605
1748.292474,18061.024985,7550.100608,-73085.510509
1748.295014,19541.436869,3552.988522,-70634.004916
1748.297554,20133.601622,-20281.642811,-71400.100414
1748.300102,14211.954086,-35233.802839,-74464.482406
1748.302650,1628.453072,-19541.436869,-75843.454302
1748.305199,2960.823768,-8438.347739,-77069.207099
1748.307747,11843.295072,3701.029710,-74617.701505
1748.310295,6513.812290,2368.659014,-73698.386908
1748.312844,-19985.560434,1184.329507,-78141.740796
1748.315392,-4441.235652,9770.718434,-78294.959896
1748.317940,6661.853478,-1480.411884,-75077.358804
1748.320489,2516.700203,2960.823768,-75996.673402
1748.323037,-12583.501014,13767.830521,-76149.892501
1748.325586,14211.954086,444.123565,-73698.386908
1748.328134,-444.123565,592.164754,-75077.358804
1748.330682,-148.041188,4145.153275,-73545.167808
1748.333231,15248.242405,8438.347739,-74004.825107
1748.335779,-16284.530724,1924.535449,-78448.178995
1748.338327,-592.164754,8586.388927,-74158.044206
1748.340876,22206.178260,2516.700203,-71859.757712
1748.343424,-9622.677246,3997.112087,-76915.987999
1748.345972,-13027.624579,-888.247130,-76609.549800
1748.348521,17616.901420,1036.288319,-73545.167808
1748.351069,7402.059420,14211.954086,-74924.139704
1748.353617,-15100.201217,9474.636058,-76915.987999
1748.356166,-888.247130,2220.617826,-72472.634111
1748.358714,15988.448347,13175.665768,-74924.139704
1748.361262,11547.212695,-11843.295072,-74158.044206
1748.363811,14211.954086,-14952.160028,-73391.948708
1748.366359,8734.430116,-3552.988522,-73698.386908
1748.368907,1628.453072,-13471.748144,-73851.606007
1748.371456,11103.089130,-8882.471304,-74004.825107
1748.374004,5921.647536,-296.082377,-74924.139704
1748.376553,-5625.565159,11695.253884,-77528.864398
1748.379101,-4589.276840,9622.677246,-76149.892501
1748.381649,-7698.141797,11251.130318,-75537.016103
1748.384198,3849.070898,14804.118840,-72166.195912
1748.386746,20133.601622,13471.748144,-71553.319513
1748.389294,7105.977043,1332.370696,-75690.235202
1748.391843,-12435.459826,9474.636058,-77528.864398
1748.394391,8734.430116,8586.388927,-74158.044206
1748.396939,296.082377,4885.359217,-75537.016103
1748.399488,-17468.860231,7550.100608,-75383.797003
1748.401992,19097.313304,-10214.842000,-74004.825107
1748.404496,3997.112087,-3849.070898,-76149.892501
1748.407001,-5033.400406,-296.082377,-74924.139704
1748.409505,15396.283594,592.164754,-73391.948708
1748.412010,-1628.453072,-4589.276840,-75383.797003
1748.414514,-16432.571912,-8734.430116,-76762.768900
1748.417018,10955.047942,-11547.212695,-75690.235202
1748.419523,3552.988522,5033.400406,-75537.016103
1748.422027,740.205942,4293.194464,-75230.577904
1748.424531,4293.194464,-9770.718434,-76303.111601
1748.427036,-296.082377,5329.482782,-73545.167808
1748.429540,3849.070898,11695.253884,-74311.263306
1748.432044,17172.777854,-12583.501014,-73698.386908
1748.434549,18357.107362,-23390.507767,-73391.948708
1748.437053,15100.201217,10658.965565,-72932.291410
1748.439558,7402.059420,35677.926404,-72932.291410
1748.442062,4589.276840,17912.983796,-72012.976812
1748.444566,7846.182985,-10807.006753,-74004.825107
1748.447071,10658.965565,10510.924376,-73391.948708
1748.449575,-6661.853478,444.123565,-78601.398095
1748.452079,-6809.894666,-4293.194464,-74158.044206
1748.454584,23686.590144,-7846.182985,-71246.881314
1748.457088,8734.430116,-1332.370696,-75077.358804
1748.459592,-11991.336260,-12139.377449,-77988.521696
1748.462097,7402.059420,-6217.729913,-75690.235202
1748.464601,-1480.411884,888.247130,-75077.358804
1748.467106,-5181.441594,3849.070898,-74617.701505
1748.469610,10807.006753,17616.901420,-73391.948708
1748.472114,-12879.583391,7105.977043,-77835.302597
1748.474619,5477.523971,11695.253884,-73545.167808
1748.477123,35974.008781,5921.647536,-71859.757712
1748.479627,-17468.860231,3108.864956,-76762.768900
1748.482132,-18653.189738,13619.789333,-74924.139704
1748.484636,29904.320057,10510.924376,-71246.881314
1748.487140,2516.700203,4885.359217,-75843.454302
1748.489645,6365.771101,2220.617826,-74311.263306
1748.492149,17468.860231,8882.471304,-72012.976812
1748.494654,-6661.853478,23686.590144,-74311.263306
1748.497158,-2812.782580,-6069.688724,-76303.111601
1748.499662,11547.212695,-3701.029710,-75383.797003
1748.502183,6809.894666,4145.153275,-74311.263306
1748.504705,-9030.512492,-2072.576638,-77528.864398
1748.507226,-6217.729913,-23834.631332,-76303.111601
1748.509747,2072.576638,10362.883188,-73698.386908
1748.512269,-10214.842000,11103.089130,-75843.454302
1748.514790,-1332.370696,13175.665768,-76762.768900
1748.517312,4441.235652,-4589.276840,-75996.673402
1748.519833,-8142.265362,8438.347739,-76915.987999
1748.522354,7846.182985,16136.489536,-71706.538613
1748.524876,21169.889941,6217.729913,-73085.510509
1748.527397,-4737.318029,-3256.906145,-75690.235202
1748.529918,-13027.624579,6217.729913,-77682.083497
1748.532440,4293.194464,11399.171507,-73851.606007
1748.534961,-1036.288319,3997.112087,-76149.892501
1748.537482,-25907.207970,0.000000,-76762.768900
1748.540004,12879.583391,-592.164754,-73851.606007
1748.542525,6513.812290,-1332.370696,-75996.673402
1748.545046,1628.453072,2664.741391,-74924.139704
1748.547568,14508.036463,-5921.647536,-74158.044206
1748.550089,-14211.954086,-1332.370696,-76149.892501
1748.552611,-8142.265362,-3701.029710,-74924.139704
1748.555132,14656.077652,-888.247130,-73851.606007
1748.557653,13471.748144,3997.112087,-75077.358804
1748.560175,12139.377449,11251.130318,-73085.510509
1748.562696,2220.617826,4737.318029,-74311.263306
1748.565217,-10362.883188,-12139.377449,-75537.016103
1748.567739,-11251.130318,26055.249158,-75537.016103
1748.570260,-5477.523971,43524.109390,-77528.864398
1748.572781,-740.205942,10955.047942,-77375.645298
1748.575303,-3108.864956,19245.354492,-73851.606007
1748.577824,-8438.347739,33901.432144,-74617.701505
1748.580346,-9178.553681,28719.990550,-76609.549800
1748.582867,-5329.482782,-14804.118840,-76609.549800
1748.585388,11103.089130,-296.082377,-74311.263306
1748.587910,8290.306550,6217.729913,-73391.948708
1748.590431,-3256.906145,13915.871710,-75690.235202
1748.592952,-21169.889941,-6513.812290,-78601.398095
1748.595474,4589.276840,-11991.336260,-75843.454302
1748.597995,2220.617826,5477.523971,-75690.235202
1748.600516,-11991.336260,17468.860231,-76456.330700
1748.603052,8290.306550,-5477.523971,-75537.016103
1748.605587,-7846.182985,-8438.347739,-76456.330700
1748.608122,-1036.288319,9474.636058,-73391.948708
1748.610657,10066.800811,16432.571912,-74617.701505
1748.613193,-15396.283594,1036.288319,-77682.083497
1748.615728,11399.171507,3108.864956,-72625.853210
1748.618263,20281.642811,888.247130,-73545.167808
1748.620798,8438.347739,-444.123565,-76303.111601
1748.623333,-14211.954086,-888.247130,-77528.864398
1748.625869,5181.441594,7846.182985,-75690.235202
1748.628404,-8586.388927,18653.189738,-76456.330700
1748.630939,-7105.977043,10658.965565,-75383.797003
1748.633474,4589.276840,5625.565159,-73698.386908
1748.636010,-6513.812290,24278.754898,-75690.235202
1748.638545,-10807.006753,20725.766376,-78141.740796
1748.641080,5477.523971,7402.059420,-76149.892501
1748.643615,8290.306550,14656.077652,-72319.415011
1748.646151,-13767.830521,21021.848753,-74311.263306
1748.648686,-11103.089130,36862.255912,-77528.864398
1748.651221,-5329.482782,11251.130318,-77528.864398
1748.653756,13175.665768,-10955.047942,-75230.577904
1748.656292,4885.359217,5477.523971,-74924.139704
1748.658827,-22798.343014,21762.054695,-76762.768900
1748.661362,-5033.400406,10510.924376,-75996.673402
1748.663897,17320.819043,-3256.906145,-73698.386908
1748.666432,-1184.329507,17468.860231,-75537.016103
1748.668968,-3849.070898,16728.654289,-77835.302597
1748.671503,-8142.265362,-1184.329507,-77528.864398
1748.674038,-4885.359217,2664.741391,-72779.072310
1748.676573,23094.425390,-3256.906145,-71553.319513
1748.679109,-2960.823768,-6217.729913,-77682.083497
1748.681644,-11843.295072,-1332.370696,-77069.207099
1748.684189,17024.736666,0.000000,-72625.853210
1748.686734,7846.182985,-3108.864956,-74311.263306
1748.689279,-16284.530724,-12435.459826,-76915.987999
1748.691824,1776.494261,-11103.089130,-76149.892501
1748.694370,5625.565159,10510.924376,-75230.577904
1748.696915,11399.171507,2664.741391,-75383.797003
1748.699460,-444.123565,2960.823768,-74924.139704
1748.702005,-13915.871710,-23094.425390,-75690.235202
1748.704550,-10362.883188,-2960.823768,-76149.892501
1748.707095,-10510.924376,32569.061448,-79673.931792
1748.709640,-14656.077652,-11399.171507,-80440.027290
1748.712186,-2220.617826,-42339.779882,-76303.111601
1748.714731,11399.171507,-42783.903448,-75537.016103
1748.717276,3552.988522,-13175.665768,-73851.606007
1748.719821,-9918.759623,6513.812290,-76762.768900
1748.722366,8734.430116,-14359.995275,-77682.083497
1748.724911,4145.153275,-13323.706956,-74924.139704
1748.727456,-4293.194464,17024.736666,-73085.510509
1748.730002,9622.677246,13323.706956,-73545.167808
1748.732547,4293.194464,-16876.695478,-75383.797003
1748.735092,15988.448347,-14952.160028,-74311.263306
1748.737637,1184.329507,-1184.329507,-74464.482406
1748.740182,0.000000,14063.912898,-73698.386908
1748.742727,10510.924376,16728.654289,-73238.729609
1748.745272,-7994.224174,7402.059420,-77528.864398
1748.747818,-5773.606348,15544.324782,-75230.577904
1748.750363,21910.095883,11251.130318,-72166.195912
1748.752908,-10214.842000,1628.453072,-76609.549800
1748.755453,-14952.160028,13767.830521,-76609.549800
1748.757998,15988.448347,15100.201217,-74004.825107
1748.760543,5329.482782,9326.594869,-75077.358804
1748.763088,14656.077652,-3256.906145,-73238.729609
1748.765634,10807.006753,1776.494261,-72625.853210
1748.768179,-7254.018232,28423.908173,-73545.167808
1748.770724,4589.276840,20873.807564,-76149.892501
1748.773269,-6069.688724,17024.736666,-78754.617194
1748.775814,6809.894666,5921.647536,-75690.235202
1748.778359,6365.771101,25759.166782,-72472.634111
1748.780904,-10658.965565,22502.260637,-73851.606007
1748.783450,-4293.194464,30052.361245,-73851.606007
1748.786003,11251.130318,1036.288319,-75383.797003
1748.788557,11547.212695,2368.659014,-75383.797003
1748.791110,-3404.947333,19245.354492,-76762.768900
1748.793664,-25759.166782,17912.983796,-76609.549800
1748.796217,5181.441594,5033.400406,-71706.538613
1748.798770,22946.384202,-2220.617826,-71859.757712
1748.801324,-7550.100608,20577.725188,-77528.864398
1748.803877,-3997.112087,9030.512492,-77375.645298
1748.806431,740.205942,-148.041188,-75843.454302
1748.808984,-12287.418637,3256.906145,-74311.263306
1748.811538,6809.894666,2220.617826,-74158.044206
1748.814091,5477.523971,-4293.194464,-76303.111601
1748.816645,-4145.153275,-1332.370696,-75996.673402
1748.819198,22798.343014,2960.823768,-72472.634111
1748.821752,1628.453072,-4293.194464,-74924.139704
1748.824305,-17024.736666,-11399.171507,-75383.797003
1748.826859,7402.059420,-6069.688724,-74311.263306
1748.829412,21614.013506,14211.954086,-73851.606007
1748.831966,6809.894666,3108.864956,-75537.016103
1748.834519,2220.617826,11991.336260,-73238.729609
1748.837072,-3997.112087,15692.365970,-74311.263306
1748.839626,7254.018232,-6069.688724,-72779.072310
1748.842179,19393.395680,-10066.800811,-74158.044206
1748.844733,19689.478057,7402.059420,-74004.825107
1748.847286,17320.819043,-10658.965565,-72779.072310
1748.849840,10955.047942,-32717.102636,-72932.291410
1748.852393,12139.377449,-8734.430116,-72472.634111
1748.854947,-2220.617826,-10362.883188,-76303.111601
1748.857500,7254.018232,-444.123565,-74158.044206
1748.860054,15988.448347,-5477.523971,-75996.673402
1748.862607,-19689.478057,-2072.576638,-78448.178995
1748.865161,-10807.006753,-16728.654289,-77069.207099
1748.867714,-740.205942,-592.164754,-76303.111601
1748.870268,-9770.718434,19393.395680,-75690.235202
1748.872821,8142.265362,7402.059420,-74617.701505
1748.875374,8142.265362,-1776.494261,-74004.825107
1748.877928,296.082377,3256.906145,-74004.825107
1748.880481,14063.912898,9770.718434,-74004.825107
1748.883035,-5181.441594,4589.276840,-76149.892501
1748.885588,-2220.617826,3701.029710,-73545.167808
1748.888149,22946.384202,1776.494261,-70940.443115
1748.890709,-3404.947333,2960.823768,-77835.302597
1748.893270,-19245.354492,10955.047942,-78907.836294
1748.895830,-1480.411884,5921.647536,-76303.111601
1748.898390,-2220.617826,11399.171507,-74924.139704
1748.900951,-5033.400406,16136.489536,-72472.634111
1748.903511,5329.482782,15396.283594,-75690.235202
1748.906072,7550.100608,-26647.413912,-74770.920605
1748.908632,24574.837274,3701.029710,-73085.510509
1748.911192,3701.029710,20725.766376,-74464.482406
1748.913753,3701.029710,6957.935855,-73698.386908
1748.916313,22206.178260,-25018.960840,-71553.319513
1748.918874,2664.741391,8734.430116,-73545.167808
1748.921434,-2368.659014,14508.036463,-77222.426198
1748.923994,296.082377,11103.089130,-77988.521696
1748.926555,-10955.047942,1332.370696,-77528.864398
1748.929115,-6809.894666,3552.988522,-73698.386908
1748.931676,12731.542202,1924.535449,-72012.976812
1748.934236,-9918.759623,15840.407159,-76762.768900
1748.936796,5329.482782,4737.318029,-75690.235202
1748.939357,15840.407159,-148.041188,-75230.577904
1748.941917,-24574.837274,6513.812290,-77375.645298
1748.944478,2664.741391,-1628.453072,-74617.701505
1748.947038,14952.160028,-4145.153275,-72625.853210
1748.949598,1480.411884,-296.082377,-74004.825107
1748.952159,13767.830521,-1184.329507,-74770.920605
1748.954719,-14508.036463,-444.123565,-77528.864398
1748.957280,-21169.889941,-9326.594869,-77375.645298
1748.959840,2516.700203,-14508.036463,-75537.016103
1748.962401,19541.436869,15692.365970,-72932.291410
1748.964961,11399.171507,2664.741391,-74464.482406
1748.967521,-4737.318029,6365.771101,-75537.016103
1748.970082,-9474.636058,6217.729913,-73391.948708
1748.972642,-2072.576638,36122.049970,-75690.235202
1748.975203,4293.194464,25759.166782,-76915.987999
1748.977763,6513.812290,8290.306550,-73545.167808
1748.980323,14508.036463,-13619.789333,-73391.948708
1748.982884,6513.812290,-11843.295072,-71859.757712
1748.985444,2664.741391,7698.141797,-73851.606007
1748.988005,13175.665768,-10510.924376,-75077.358804
1748.990570,2516.700203,-8586.388927,-76762.768900
1748.993135,-14508.036463,-6809.894666,-78141.740796
1748.995701,3256.906145,13027.624579,-73238.729609
1748.998266,7550.100608,9918.759623,-72625.853210
1749.000831,15988.448347,-15100.201217,-74004.825107
1749.003397,7994.224174,-18505.148550,-75077.358804
1749.005962,-7698.141797,12287.418637,-75383.797003
1749.008527,5921.647536,22798.343014,-74004.825107
1749.011093,-5921.647536,5773.606348,-76149.892501
1749.013658,9178.553681,12139.377449,-73238.729609
1749.016224,17764.942608,11251.130318,-73085.510509
1749.018789,-3256.906145,4145.153275,-75843.454302
1749.021354,-16580.613101,17616.901420,-76762.768900
1749.023920,14508.036463,9326.594869,-73698.386908
1749.026485,8882.471304,3552.988522,-73851.606007
1749.029050,18505.148550,-1924.535449,-73545.167808
1749.031616,10807.006753,-1776.494261,-73545.167808
1749.034181,-3404.947333,7846.182985,-73391.948708
1749.036746,4145.153275,-38638.750172,-75690.235202
1749.039312,22650.301825,-22946.384202,-72932.291410
1749.041877,-3108.864956,-4589.276840,-76915.987999
1749.044442,-24574.837274,35529.885216,-79214.274493
1749.047008,-22206.178260,14508.036463,-77375.645298
1749.049573,-7254.018232,9474.636058,-75077.358804
1749.052138,-1628.453072,-18801.230927,-75690.235202
1749.054704,8290.306550,22354.219448,-75690.235202
1749.057269,-23390.507767,35085.761651,-79520.712692
1749.059835,-22502.260637,9178.553681,-77835.302597
1749.062400,19245.354492,-9030.512492,-70940.443115
1749.064965,11251.130318,8142.265362,-71859.757712
1749.067531,-2960.823768,11991.336260,-77988.521696
1749.070096,-14952.160028,2516.700203,-79827.150892
1749.072661,-6513.812290,1036.288319,-74004.825107
1749.075227,30348.443622,-2368.659014,-70634.004916
1749.077792,-5477.523971,1036.288319,-75996.673402
1749.080357,-11843.295072,-2960.823768,-76303.111601
1749.082923,9622.677246,-3701.029710,-74924.139704
1749.085488,-1036.288319,-1184.329507,-76915.987999
1749.088053,-17172.777854,-4589.276840,-77375.645298
1749.090619,9770.718434,-1332.370696,-74004.825107
1749.093144,17764.942608,9030.512492,-75230.577904
1749.095670,-9770.718434,-740.205942,-76149.892501
1749.098195,-13619.789333,-20133.601622,-75996.673402
1749.100721,3552.988522,-4441.235652,-72932.291410
1749.103247,3997.112087,9326.594869,-76456.330700
1749.105772,-2368.659014,11991.336260,-77069.207099
1749.108298,-1036.288319,-14952.160028,-76303.111601
1749.110823,3701.029710,-21021.848753,-74158.044206
1749.113349,4145.153275,-5921.647536,-73085.510509
1749.115874,-3701.029710,11251.130318,-74464.482406
1749.118400,-2960.823768,15396.283594,-75230.577904
1749.120925,27091.537477,-13323.706956,-72625.853210
1749.123451,5477.523971,-20133.601622,-76762.768900
1749.125977,-16136.489536,148.041188,-77069.207099
1749.128502,-14508.036463,11399.171507,-75843.454302
1749.131028,2664.741391,12879.583391,-74158.044206
1749.133553,19245.354492,-13027.624579,-73851.606007
1749.136079,-5477.523971,1628.453072,-75996.673402
1749.138604,-1332.370696,17024.736666,-75690.235202
1749.141130,6513.812290,14359.995275,-75383.797003
1749.143655,-11547.212695,2812.782580,-75996.673402
1749.146181,5329.482782,7846.182985,-72319.415011
1749.148707,16580.613101,4737.318029,-73698.386908
1749.151232,-14211.954086,7994.224174,-78448.178995
1749.153758,-8142.265362,17912.983796,-76149.892501
1749.156283,4145.153275,22798.343014,-73545.167808
1749.158809,11399.171507,5921.647536,-72472.634111
1749.161334,11695.253884,-4145.153275,-73391.948708
1749.163860,-4589.276840,-11843.295072,-74004.825107
1749.166385,-15248.242405,30052.361245,-77069.207099
1749.168911,-17616.901420,28571.949361,-80286.808190
1749.171437,-7254.018232,-19985.560434,-77528.864398
1749.173962,26351.331535,-26795.455100,-72319.415011
1749.176488,15100.201217,-7254.018232,-70327.566716
1749.179013,-7105.977043,21169.889941,-75077.358804
1749.181539,-9326.594869,20281.642811,-79061.055394
1749.184064,-12435.459826,2072.576638,-78448.178995
1749.186590,18357.107362,12287.418637,-71400.100414
1749.189115,10807.006753,17912.983796,-73545.167808
1749.191641,-19837.519246,18653.189738,-76456.330700
1749.194179,148.041188,9770.718434,-74004.825107
1749.196717,13323.706956,6069.688724,-73085.510509
1749.199255,17616.901420,4441.235652,-73238.729609
1749.201794,6217.729913,-12435.459826,-74464.482406
1749.204332,-3552.988522,-4441.235652,-76149.892501
1749.206870,3849.070898,3701.029710,-74004.825107
1749.209408,5773.606348,-1332.370696,-75690.235202
1749.211946,-14211.954086,-2368.659014,-77069.207099
1749.214484,4737.318029,4145.153275,-74004.825107
1749.217022,11991.336260,2368.659014,-75843.454302
1749.219560,-4737.318029,-6217.729913,-77528.864398
1749.222099,-11695.253884,592.164754,-74158.044206
1749.224637,13027.624579,-3997.112087,-72932.291410
1749.227175,9918.759623,-9326.594869,-74464.482406
1749.229713,-10362.883188,13619.789333,-77375.645298
1749.232251,-7698.141797,37602.461854,-77375.645298
1749.234789,-4737.318029,24130.713709,-77528.864398
1749.237327,10362.883188,-26943.496289,-74617.701505
1749.239865,2812.782580,-15248.242405,-73238.729609
1749.242404,-15544.324782,19985.560434,-77375.645298
1749.244942,-18949.272115,-6957.935855,-77528.864398
1749.247480,40711.326810,-26351.331535,-71859.757712
1749.250018,35825.967593,-16284.530724,-72625.853210
1749.252556,-22946.384202,-1924.535449,-78907.836294
1749.255094,-35825.967593,6661.853478,-79367.493593
1749.257632,-4145.153275,24574.837274,-74004.825107
1749.260170,27683.702231,-1184.329507,-72932.291410
1749.262709,-7846.182985,-3701.029710,-75383.797003
1749.265247,-6809.894666,8290.306550,-76456.330700
1749.267785,12139.377449,8438.347739,-74464.482406
1749.270323,-7698.141797,3849.070898,-75690.235202
1749.272861,-4293.194464,7402.059420,-73238.729609
1749.275399,20725.766376,2516.700203,-72166.195912
1749.277937,-2516.700203,-1480.411884,-78601.398095
1749.280475,-13767.830521,19393.395680,-78141.740796
1749.283014,-7105.977043,24574.837274,-75690.235202
1749.285552,14063.912898,3997.112087,-72012.976812
1749.288090,19097.313304,14359.995275,-70021.128517
1749.290628,3404.947333,14359.995275,-74770.920605
1749.293166,7698.141797,-3552.988522,-75077.358804
1749.295713,-1924.535449,24426.796086,-77222.426198
1749.298261,14656.077652,15692.365970,-72012.976812
1749.300808,24722.878463,-12879.583391,-69408.252119
1749.303356,13471.748144,9030.512492,-70480.785816
1749.305903,148.041188,5477.523971,-75996.673402
1749.308451,15100.201217,-8586.388927,-74770.920605
1749.310998,25907.207970,-1480.411884,-73391.948708
1749.313546,-5033.400406,12731.542202,-75843.454302
1749.316093,-13767.830521,12287.418637,-76149.892501
1749.318641,3701.029710,8438.347739,-72472.634111
1749.321188,18357.107362,2072.576638,-71553.319513
1749.323735,5773.606348,-296.082377,-76149.892501
1749.326283,-11695.253884,-10362.883188,-79673.931792
1749.328830,-20725.766376,-1776.494261,-79673.931792
1749.331378,15396.283594,-2368.659014,-74158.044206
1749.333925,1924.535449,4885.359217,-72932.291410
1749.336473,8290.306550,5181.441594,-71859.757712
1749.339020,6217.729913,-3256.906145,-75537.016103
1749.341568,-12435.459826,-9030.512492,-78907.836294
1749.344115,4293.194464,-10955.047942,-75843.454302
1749.346663,17024.736666,-3997.112087,-75690.235202
1749.349210,-7698.141797,-8734.430116,-75383.797003
1749.351757,-16136.489536,-15100.201217,-74617.701505
1749.354305,6217.729913,-14063.912898,-73851.606007
1749.356852,19393.395680,-38934.832549,-74770.920605
1749.359400,6957.935855,8438.347739,-75230.577904
1749.361947,-4293.194464,22502.260637,-76762.768900
1749.364495,4589.276840,13915.871710,-73698.386908
1749.367042,740.205942,-7698.141797,-75383.797003
1749.369590,-29608.237680,18061.024985,-77222.426198
1749.372137,-592.164754,23982.672521,-74770.920605
1749.374684,30644.525999,-13027.624579,-75077.358804
1749.377232,15692.365970,-33901.432144,-75690.235202
1749.379779,-15100.201217,-7105.977043,-75996.673402
1749.382327,-11695.253884,24870.919651,-74311.263306
1749.384874,12435.459826,-4293.194464,-75077.358804
1749.387422,148.041188,-7550.100608,-76762.768900
1749.389969,3701.029710,2368.659014,-74924.139704
1749.392517,13471.748144,19689.478057,-74158.044206
1749.395064,-18505.148550,7254.018232,-77682.083497
1749.397619,1776.494261,3997.112087,-72472.634111
1749.400175,23390.507767,-4737.318029,-72166.195912
1749.402730,-14359.995275,6809.894666,-79367.493593
1749.405285,-14508.036463,22058.137072,-78294.959896
1749.407841,7994.224174,18209.066173,-73698.386908
1749.410396,26203.290347,5625.565159,-69408.252119
1749.412951,7254.018232,-13323.706956,-72779.072310
1749.415506,-18209.066173,22058.137072,-75537.016103
1749.418062,-5477.523971,1628.453072,-79061.055394
1749.420617,-12731.542202,888.247130,-81052.903688
1749.423172,3997.112087,-2368.659014,-74617.701505
1749.425728,22058.137072,-17616.901420,-70940.443115
1749.428283,3849.070898,5625.565159,-71553.319513
1749.430838,-8142.265362,15248.242405,-78141.740796
1749.433394,-20725.766376,6513.812290,-79673.931792
1749.435949,12879.583391,2664.741391,-74924.139704
1749.438504,20725.766376,10807.006753,-73545.167808
1749.441060,-14656.077652,27535.661042,-76762.768900
1749.443615,-14359.995275,6809.894666,-75230.577904
1749.446170,13767.830521,3701.029710,-70174.347617
1749.448725,19985.560434,2812.782580,-71706.538613
1749.451281,22798.343014,-12731.542202,-75383.797003
1749.453836,-20281.642811,-2960.823768,-80133.589091
1749.456391,-1776.494261,-296.082377,-76303.111601
1749.458947,2516.700203,-296.082377,-74464.482406
1749.461502,-7254.018232,1776.494261,-73391.948708
1749.464057,13323.706956,5033.400406,-72779.072310
1749.466613,4589.276840,-2664.741391,-78294.959896
1749.469168,-5625.565159,-11547.212695,-79367.493593
1749.471723,10510.924376,3404.947333,-73238.729609
1749.474278,3997.112087,-5477.523971,-74924.139704
1749.476834,-22354.219448,4589.276840,-72625.853210
1749.479389,-19985.560434,-4885.359217,-78601.398095
1749.481944,-3997.112087,-8734.430116,-79520.712692
1749.484500,2072.576638,-26203.290347,-77222.426198
1749.487055,-3701.029710,-1776.494261,-77528.864398
1749.489610,-13471.748144,-13027.624579,-78141.740796
1749.492166,-21614.013506,-5181.441594,-74464.482406
1749.494721,17912.983796,-4145.153275,-73085.510509
1749.497276,9326.594869,-4885.359217,-76303.111601
1749.499796,-18209.066173,-3849.070898,-79827.150892
1749.502317,-7550.100608,2516.700203,-77069.207099
1749.504838,24426.796086,2220.617826,-69408.252119
1749.507359,9178.553681,-12435.459826,-71706.538613
1749.509880,-5773.606348,-15988.448347,-76609.549800
1749.512401,-296.082377,13915.871710,-75537.016103
1749.514922,-4441.235652,21317.931130,-77835.302597
1749.517443,-3997.112087,9474.636058,-75690.235202
1749.519964,23390.507767,888.247130,-70634.004916
1749.522485,-15544.324782,6957.935855,-74924.139704
1749.525006,-23390.507767,21169.889941,-76762.768900
1749.527527,21465.972318,9326.594869,-74311.263306
1749.530047,17912.983796,-11251.130318,-75537.016103
1749.532568,-444.123565,6513.812290,-75996.673402
1749.535089,-19393.395680,-4885.359217,-75383.797003
1749.537610,-13175.665768,-12287.418637,-74311.263306
1749.540131,22354.219448,-27091.537477,-72319.415011
1749.542652,13767.830521,-27683.702231,-76915.987999
1749.545173,-19541.436869,7402.059420,-81052.903688
1749.547694,-34197.514520,28423.908173,-80133.589091
1749.550215,-18061.024985,-5033.400406,-76149.892501
1749.552736,5773.606348,12731.542202,-69714.690318
1749.555257,-15396.283594,35825.967593,-77069.207099
1749.557778,-18209.066173,19097.313304,-79827.150892
1749.560299,11251.130318,-8734.430116,-75843.454302
1749.562820,19393.395680,3256.906145,-72472.634111
1749.565340,-5181.441594,10066.800811,-74004.825107
1749.567861,-17024.736666,12287.418637,-75077.358804
1749.570382,-10658.965565,4145.153275,-76609.549800
1749.572903,22058.137072,-14656.077652,-74158.044206
1749.575424,2072.576638,-296.082377,-76915.987999
1749.577945,888.247130,8586.388927,-75996.673402
1749.580466,-9474.636058,-2368.659014,-75996.673402
1749.582987,-12139.377449,-148.041188,-73545.167808
1749.585508,13767.830521,6365.771101,-71706.538613
1749.588029,4145.153275,-444.123565,-76915.987999
1749.590550,-9178.553681,-6809.894666,-79367.493593
1749.593071,5181.441594,-17172.777854,-77069.207099
1749.595592,3849.070898,14359.995275,-73085.510509
1749.598112,-148.041188,-17616.901420,-71093.662214
1749.600608,-4441.235652,11399.171507,-75230.577904
1749.603103,8438.347739,-2072.576638,-77682.083497
1749.605598,-740.205942,-5625.565159,-78907.836294
1749.608093,-16876.695478,9474.636058,-77069.207099
1749.610588,12879.583391,-6365.771101,-71859.757712
1749.613083,14359.995275,-26055.249158,-74464.482406
1749.615578,-38638.750172,-2516.700203,-79980.369991
1749.618073,-10066.800811,21317.931130,-76915.987999
1749.620568,31384.731941,-5329.482782,-74924.139704
1749.623063,-3849.070898,-11991.336260,-77375.645298
1749.625559,-22502.260637,10362.883188,-75996.673402
1749.628054,16728.654289,-3552.988522,-71859.757712
1749.630549,148.041188,-6513.812290,-74464.482406
1749.633044,-740.205942,5181.441594,-76609.549800
1749.635539,26203.290347,7402.059420,-72625.853210
1749.638034,-3849.070898,10362.883188,-76149.892501
1749.640529,-18061.024985,9622.677246,-74617.701505
1749.643024,24426.796086,-1924.535449,-70021.128517
1749.645519,9622.677246,-1924.535449,-74464.482406
1749.648014,-18357.107362,16580.613101,-79827.150892
1749.650509,296.082377,13471.748144,-76609.549800
1749.653005,32421.020260,-4145.153275,-71706.538613
1749.655500,5477.523971,-24722.878463,-72472.634111
1749.657995,-16876.695478,11547.212695,-74924.139704
1749.660490,6217.729913,-14508.036463,-75537.016103
1749.662985,-6217.729913,-27091.537477,-79673.931792
1749.665480,10362.883188,-10362.883188,-76762.768900
1749.667975,16876.695478,-10807.006753,-72319.415011
1749.670470,-5329.482782,10807.006753,-74311.263306
1749.672965,-33901.432144,15396.283594,-78448.178995
1749.675460,2220.617826,8586.388927,-75383.797003
1749.677956,24574.837274,8142.265362,-74770.920605
1749.680451,-5033.400406,17024.736666,-78294.959896
1749.682946,-14804.118840,5181.441594,-77222.426198
1749.685441,11991.336260,5625.565159,-70634.004916
1749.687936,27239.578666,2072.576638,-71400.100414
1749.690431,-17024.736666,-14211.954086,-78294.959896
1749.692926,-20429.683999,-6217.729913,-79520.712692
1749.695421,7698.141797,-1480.411884,-77375.645298
1749.697916,0.000000,1036.288319,-75690.235202
1749.700432,2220.617826,6661.853478,-71706.538613
1749.702947,12139.377449,444.123565,-72319.415011
1749.705462,-8586.388927,-6217.729913,-77222.426198
1749.707977,-3997.112087,-5625.565159,-78601.398095
1749.710492,14508.036463,-9030.512492,-75843.454302
1749.713007,444.123565,13323.706956,-74770.920605
1749.715523,5181.441594,51814.415940,-70480.785816
1749.718038,2220.617826,22650.301825,-74464.482406
1749.720553,-1184.329507,32421.020260,-77375.645298
1749.723068,4885.359217,21614.013506,-78141.740796
1749.725583,-592.164754,-6513.812290,-77375.645298
1749.728099,-23390.507767,14804.118840,-75690.235202
1749.730614,11399.171507,22354.219448,-69714.690318
1749.733129,28275.866984,-13767.830521,-72012.976812
1749.735644,592.164754,-31976.896694,-77375.645298
1749.738159,6513.812290,-11251.130318,-76149.892501
1749.740675,10214.842000,5921.647536,-76762.768900
1749.743190,-25759.166782,13471.748144,-76915.987999
1749.745705,1480.411884,6069.688724,-72932.291410
1749.748220,4293.194464,6069.688724,-73698.386908
1749.750735,444.123565,7550.100608,-74924.139704
1749.753251,14211.954086,12583.501014,-74924.139704
1749.755766,10510.924376,1924.535449,-74004.825107
1749.758281,-19541.436869,7105.977043,-76149.892501
1749.760796,8290.306550,6069.688724,-72166.195912
1749.763311,23094.425390,-740.205942,-72012.976812
1749.765826,-3108.864956,7105.977043,-76303.111601
1749.768342,-6661.853478,6365.771101,-77528.864398
1749.770857,22354.219448,22650.301825,-72012.976812
1749.773372,4885.359217,16728.654289,-74158.044206
1749.775887,-11991.336260,14508.036463,-74311.263306
1749.778402,5329.482782,6513.812290,-74158.044206
1749.780918,11843.295072,-740.205942,-75537.016103
1749.783433,12287.418637,2516.700203,-74924.139704
1749.785948,7402.059420,9918.759623,-73238.729609
1749.788463,3701.029710,-7994.224174,-75230.577904
1749.790978,3108.864956,-15544.324782,-74311.263306
1749.793494,5773.606348,11103.089130,-74158.044206
1749.796009,3552.988522,13915.871710,-75383.797003
1749.798524,-5477.523971,12287.418637,-76762.768900
1749.801055,10658.965565,3256.906145,-73698.386908
1749.803586,-5921.647536,9030.512492,-75383.797003
1749.806117,-11843.295072,8142.265362,-74770.920605
1749.808648,21317.931130,-17616.901420,-74464.482406
1749.811179,740.205942,-9326.594869,-76456.330700
1749.813710,-1184.329507,-2664.741391,-75077.358804
1749.816241,9474.636058,3256.906145,-73391.948708
1749.818773,-13915.871710,2664.741391,-76762.768900
1749.821304,-7994.224174,-5181.441594,-74617.701505
1749.823835,14952.160028,-1776.494261,-75077.358804
1749.826366,1036.288319,-7698.141797,-77835.302597
1749.828897,-5921.647536,0.000000,-76762.768900
1749.831428,-5773.606348,4589.276840,-73698.386908
1749.833959,10362.883188,34345.555709,-70940.443115
1749.836490,14063.912898,14508.036463,-74158.044206
1749.839021,8734.430116,26351.331535,-75537.016103
1749.841552,-14804.118840,-2220.617826,-78294.959896
1749.844083,-27239.578666,-3404.947333,-80286.808190
1749.846614,-9918.759623,12731.542202,-73698.386908
1749.849145,16728.654289,10362.883188,-71246.881314
1749.851676,2960.823768,-9770.718434,-74770.920605
1749.854207,1776.494261,-26943.496289,-76456.330700
1749.856738,4589.276840,-10658.965565,-76456.330700
1749.859270,-8142.265362,19985.560434,-75843.454302
1749.861801,5181.441594,-5921.647536,-74311.263306
1749.864332,-7698.141797,-5625.565159,-74617.701505
1749.866863,2072.576638,9770.718434,-73545.167808
1749.869394,9178.553681,18653.189738,-74924.139704
1749.871925,-7105.977043,7105.977043,-76609.549800
1749.874456,-1628.453072,3997.112087,-74311.263306
1749.876987,23242.466579,-2664.741391,-72166.195912
1749.879518,-3701.029710,1776.494261,-76303.111601
1749.882049,-11843.295072,12139.377449,-76303.111601
1749.884580,14063.912898,10066.800811,-73238.729609
1749.887111,8882.471304,-9326.594869,-77069.207099
1749.889642,-23094.425390,-22206.178260,-77682.083497
1749.892173,-20873.807564,10214.842000,-77835.302597
1749.894704,-16284.530724,50926.168810,-76915.987999
1749.897236,-17172.777854,33161.226202,-77835.302597
1749.899767,8142.265362,-7254.018232,-73698.386908
1749.902311,27979.784608,18653.189738,-66497.089226
1749.904855,12879.583391,32865.143825,-68948.594820
1749.907399,20873.807564,27239.578666,-70940.443115
1749.909944,-5921.647536,1924.535449,-77222.426198
1749.912488,-5033.400406,-12731.542202,-77528.864398
1749.915032,14211.954086,3849.070898,-72012.976812
1749.917577,20133.601622,9030.512492,-71859.757712
1749.920121,-8438.347739,3701.029710,-77222.426198
1749.922665,-29016.072926,6069.688724,-77835.302597
1749.925210,19097.313304,-3997.112087,-73085.510509
1749.927754,13471.748144,-3997.112087,-75383.797003
1749.930298,296.082377,4441.235652,-74311.263306
1749.932842,740.205942,-2960.823768,-75690.235202
1749.935387,-11399.171507,-1776.494261,-77069.207099
1749.937931,-13915.871710,-8734.430116,-76609.549800
1749.940475,12583.501014,-4737.318029,-74770.920605
1749.943020,8734.430116,-4441.235652,-77069.207099
1749.945564,-1776.494261,3849.070898,-74617.701505
1749.948108,3849.070898,-2812.782580,-73238.729609
1749.950652,7254.018232,-43228.027013,-72319.415011
1749.953197,-4737.318029,17616.901420,-74311.263306
1749.955741,-11843.295072,39971.120868,-78754.617194
1749.958285,12435.459826,-10807.006753,-75230.577904
1749.960830,17172.777854,-24278.754898,-75077.358804
1749.963374,-28275.866984,13619.789333,-77375.645298
1749.965918,-31236.690752,16728.654289,-76762.768900
1749.968462,-14952.160028,32569.061448,-77988.521696
1749.971007,6217.729913,-1776.494261,-75996.673402
1749.973551,30496.484810,-20725.766376,-71553.319513
1749.976095,13175.665768,-13915.871710,-72932.291410
1749.978640,-10807.006753,8290.306550,-74311.263306
1749.981184,6957.935855,15692.365970,-74004.825107
1749.983701,3108.864956,7105.977043,-74464.482406
1749.986218,17912.983796,9326.594869,-72625.853210
1749.988735,4145.153275,9622.677246,-75077.358804
1749.991252,-20577.725188,6957.935855,-76303.111601
1749.993769,16432.571912,2516.700203,-71553.319513
1749.996286,26055.249158,7846.182985,-71400.100414
1749.998803,5773.606348,6069.688724,-75843.454302
1750.001320,-7105.977043,2664.741391,-76456.330700
1750.003838,18949.272115,-24870.919651,-71246.881314
1750.006355,12287.418637,9474.636058,-73545.167808
1750.008872,-18801.230927,7402.059420,-77988.521696
1750.011389,-19985.560434,25463.084405,-78907.836294
1750.013906,-13323.706956,14508.036463,-77528.864398
1750.016423,0.000000,27091.537477,-72779.072310
1750.018940,27239.578666,12287.418637,-70327.566716
1750.021457,5181.441594,5329.482782,-73851.606007
1750.023974,-23982.672521,10362.883188,-77682.083497
1750.026491,-9622.677246,3849.070898,-78907.836294
1750.029008,12139.377449,9622.677246,-73851.606007
1750.031525,14656.077652,8882.471304,-73085.510509
1750.034042,-14508.036463,14656.077652,-77069.207099
1750.036560,2960.823768,4885.359217,-73545.167808
1750.039077,27387.619854,-14063.912898,-73698.386908
1750.041594,-6957.935855,-7402.059420,-76915.987999
1750.044111,3256.906145,3997.112087,-75537.016103
1750.046628,740.205942,2368.659014,-76456.330700
1750.049145,-5773.606348,-1628.453072,-73391.948708
1750.051662,15840.407159,1036.288319,-71706.538613
1750.054179,3701.029710,-2664.741391,-75537.016103
1750.056696,-4145.153275,-5329.482782,-77222.426198
1750.059213,5329.482782,-3552.988522,-76149.892501
1750.061730,-444.123565,1480.411884,-74924.139704
1750.064247,-21465.972318,22946.384202,-74770.920605
1750.066765,-2368.659014,-4737.318029,-74158.044206
1750.069282,22354.219448,-26203.290347,-77069.207099
1750.071799,-10066.800811,-5921.647536,-80133.589091
1750.074316,-21169.889941,-4145.153275,-77069.207099
1750.076833,24278.754898,-17320.819043,-71706.538613
1750.079350,11103.089130,-19393.395680,-72779.072310
1750.081867,-19541.436869,7846.182985,-77375.645298
1750.084401,-444.123565,4737.318029,-76609.549800
1750.086934,12583.501014,5477.523971,-74770.920605
1750.089468,11251.130318,-18801.230927,-73698.386908
1750.092001,3849.070898,8438.347739,-71246.881314
1750.094535,4589.276840,20873.807564,-74770.920605
1750.097069,-21021.848753,10362.883188,-78754.617194
1750.099602,21169.889941,10807.006753,-72625.853210
1750.102136,23094.425390,10362.883188,-72625.853210
1750.104669,-26795.455100,1036.288319,-77375.645298
1750.107203,6957.935855,6365.771101,-73085.510509
1750.109737,27239.578666,296.082377,-71859.757712
1750.112270,-4145.153275,296.082377,-77375.645298
1750.114804,-148.041188,-5773.606348,-75690.235202
1750.117337,14211.954086,11103.089130,-71553.319513
1750.119871,-1924.535449,38638.750172,-74617.701505
1750.122405,-3701.029710,20873.807564,-74770.920605
1750.124938,19393.395680,40415.244433,-70480.785816
1750.127472,23982.672521,22058.137072,-71553.319513
1750.130005,12583.501014,20429.683999,-71093.662214
1750.132539,-3108.864956,22946.384202,-72932.291410
1750.135073,20873.807564,14804.118840,-71093.662214
1750.137606,13619.789333,-740.205942,-75077.358804
1750.140140,-8290.306550,296.082377,-76303.111601
1750.142673,-3404.947333,19985.560434,-74770.920605
1750.145207,17024.736666,12435.459826,-72166.195912
1750.147741,11251.130318,740.205942,-73545.167808
1750.150274,-19837.519246,1628.453072,-78141.740796
1750.152808,2516.700203,-5033.400406,-76609.549800
1750.155341,14211.954086,-6217.729913,-75843.454302
1750.157875,1776.494261,740.205942,-74004.825107
1750.160409,5921.647536,6513.812290,-73085.510509
1750.162942,-4441.235652,-2516.700203,-75690.235202
1750.165476,-740.205942,-8586.388927,-76456.330700
1750.168010,8142.265362,-3256.906145,-76303.111601
1750.170543,3404.947333,-10510.924376,-76609.549800
1750.173077,5181.441594,14063.912898,-74770.920605
1750.175610,4293.194464,-6809.894666,-72472.634111
1750.178144,11991.336260,12287.418637,-73391.948708
1750.180678,6661.853478,-17024.736666,-75230.577904
1750.183211,3256.906145,-4145.153275,-76149.892501
1750.185757,-4145.153275,-9622.677246,-78141.740796
1750.188304,5773.606348,-14063.912898,-75690.235202
1750.190850,6661.853478,-15248.242405,-73085.510509
1750.193396,1776.494261,-2960.823768,-74311.263306
1750.195942,7105.977043,-4293.194464,-74311.263306
1750.198489,-8586.388927,2812.782580,-79367.493593
1750.201035,-21910.095883,18801.230927,-79367.493593
1750.203581,13471.748144,-4441.235652,-74770.920605
1750.206127,3849.070898,-9326.594869,-74158.044206
1750.208673,5625.565159,3849.070898,-73238.729609
1750.211220,21317.931130,9918.759623,-71859.757712
1750.213766,-7105.977043,10807.006753,-76915.987999
1750.216312,-5625.565159,3404.947333,-76303.111601
1750.218858,24574.837274,-5181.441594,-73085.510509
1750.221405,-5033.400406,5181.441594,-77222.426198
1750.223951,-17172.777854,19245.354492,-76915.987999
1750.226497,2664.741391,32865.143825,-73698.386908
1750.229043,-7402.059420,29756.278868,-75996.673402
1750.231590,3108.864956,18653.189738,-72319.415011
1750.234136,10362.883188,19837.519246,-73391.948708
1750.236682,9770.718434,36566.173535,-73085.510509
1750.239228,-1036.288319,32865.143825,-74004.825107
1750.241774,-20133.601622,35381.844028,-78294.959896
1750.244321,-28275.866984,31236.690752,-76456.330700
1750.246867,888.247130,5773.606348,-72932.291410
1750.249413,22354.219448,6069.688724,-72625.853210
1750.251959,-2516.700203,888.247130,-76915.987999
1750.254506,-10066.800811,8734.430116,-76915.987999
1750.257052,16580.613101,7846.182985,-71859.757712
1750.259598,-1332.370696,9178.553681,-74617.701505
1750.262144,-14211.954086,9918.759623,-75690.235202
1750.264691,17764.942608,-11695.253884,-74617.701505
1750.267237,3552.988522,-6661.853478,-76303.111601
1750.269783,740.205942,-740.205942,-74311.263306
1750.272329,4293.194464,6217.729913,-73238.729609
1750.274875,-11547.212695,1924.535449,-75230.577904
1750.277422,-3997.112087,-4293.194464,-75996.673402
1750.279968,8290.306550,-2960.823768,-75996.673402
1750.282514,5921.647536,2072.576638,-76456.330700
1750.285060,-3701.029710,-18061.024985,-74617.701505
1750.287617,-4293.194464,-9918.759623,-73698.386908
1750.290174,-2664.741391,14211.954086,-74617.701505
1750.292730,-7550.100608,31384.731941,-75996.673402
1750.295287,14359.995275,-6957.935855,-75843.454302
1750.297844,17024.736666,-19541.436869,-76303.111601
1750.300401,-7846.182985,11991.336260,-76762.768900
1750.302957,-19837.519246,24426.796086,-74770.920605
1750.305514,-12879.583391,23390.507767,-75690.235202
1750.308071,7402.059420,-14804.118840,-75537.016103
1750.310627,28719.990550,-28868.031738,-74158.044206
1750.313184,1776.494261,7550.100608,-74617.701505
1750.315741,-3997.112087,7846.182985,-75843.454302
1750.318297,2220.617826,-3701.029710,-74770.920605
1750.320854,3404.947333,7846.182985,-72472.634111
1750.323411,12583.501014,21762.054695,-73238.729609
1750.325968,-18653.189738,12139.377449,-78294.959896
1750.328524,-296.082377,1184.329507,-74924.139704
1750.331081,25315.043216,2664.741391,-73238.729609
1750.333638,16580.613101,3701.029710,-73391.948708
1750.336194,-10510.924376,9326.594869,-76456.330700
1750.338751,-5181.441594,25018.960840,-74924.139704
1750.341308,-11251.130318,43968.232955,-75077.358804
1750.343864,4885.359217,11547.212695,-73238.729609
1750.346421,47077.097911,-26351.331535,-69408.252119
1750.348978,24130.713709,34789.679274,-69867.909418
1750.351535,-23242.466579,21910.095883,-80286.808190
1750.354091,-2664.741391,2072.576638,-75230.577904
1750.356648,24278.754898,-1628.453072,-68948.594820
1750.359205,14359.995275,22502.260637,-72319.415011
1750.361761,-13767.830521,15544.324782,-80133.589091
1750.364318,-12879.583391,20725.766376,-78907.836294
1750.366875,1480.411884,1332.370696,-74617.701505
1750.369431,14952.160028,4589.276840,-69101.813920
1750.371988,17764.942608,6217.729913,-72012.976812
1750.374545,-15544.324782,-17616.901420,-79520.712692
1750.377102,-5921.647536,-12435.459826,-79061.055394
1750.379658,16432.571912,592.164754,-75996.673402
1750.382215,-4145.153275,0.000000,-74770.920605
1750.384772,7698.141797,3849.070898,-71859.757712
1750.387328,1036.288319,-3256.906145,-74617.701505
1750.389894,-14656.077652,-11399.171507,-78294.959896
1750.392459,2368.659014,-14063.912898,-78448.178995
1750.395024,3256.906145,-19541.436869,-76762.768900
1750.397589,3849.070898,-9770.718434,-73545.167808
1750.400154,2516.700203,-10658.965565,-72472.634111
1750.402719,296.082377,-2664.741391,-73545.167808
1750.405285,7105.977043,2220.617826,-75843.454302
1750.407850,8734.430116,2368.659014,-77069.207099
1750.410415,2812.782580,-5181.441594,-77069.207099
1750.412980,-12287.418637,11695.253884,-75537.016103
1750.415545,-5773.606348,15988.448347,-73545.167808
1750.418110,14359.995275,-6661.853478,-72779.072310
1750.420676,-8438.347739,-12583.501014,-78294.959896
1750.423241,-8290.306550,3849.070898,-78448.178995
1750.425806,5477.523971,-3108.864956,-76303.111601
1750.428371,444.123565,-5329.482782,-73851.606007
1750.430936,8586.388927,3256.906145,-71706.538613
1750.433501,9622.677246,14656.077652,-73238.729609
1750.436067,-19245.354492,16580.613101,-78141.740796
1750.438632,7846.182985,1924.535449,-74617.701505
1750.441197,17320.819043,-2812.782580,-74770.920605
1750.443762,-19837.519246,11399.171507,-77682.083497
1750.446327,-9030.512492,20429.683999,-75690.235202
1750.448892,14211.954086,12139.377449,-71246.881314
1750.451458,18949.272115,-6513.812290,-73085.510509
1750.454023,-3849.070898,11695.253884,-75690.235202
1750.456588,-9030.512492,148.041188,-79367.493593
1750.459153,-41007.409187,-12435.459826,-83044.751983
1750.461718,-31976.896694,34197.514520,-78754.617194
1750.464283,2368.659014,29016.072926,-72472.634111
1750.466849,33457.308578,11843.295072,-68488.937521
1750.469414,-6957.935855,-444.123565,-76609.549800
1750.471979,-26647.413912,9622.677246,-79827.150892
1750.474544,12139.377449,10510.924376,-76149.892501
1750.477109,14063.912898,8290.306550,-74311.263306
1750.479674,3849.070898,2664.741391,-72625.853210
1750.482240,8586.388927,5921.647536,-72472.634111
1750.484805,-19097.313304,-5921.647536,-77375.645298
1750.487370,-8290.306550,-8734.430116,-79520.712692
1750.489935,9178.553681,-7105.977043,-78141.740796
1750.492505,-6661.853478,-4293.194464,-75843.454302
1750.495076,2664.741391,11103.089130,-71553.319513
1750.497648,4885.359217,7994.224174,-73085.510509
1750.500219,-10214.842000,-15396.283594,-77069.207099
1750.502790,4885.359217,-27535.661042,-79214.274493
1750.505362,12287.418637,10807.006753,-76762.768900
1750.507933,3997.112087,25018.960840,-74770.920605
1750.510504,6069.688724,15544.324782,-70634.004916
1750.513075,7105.977043,-16580.613101,-72319.415011
1750.515647,-5329.482782,-25018.960840,-76762.768900
1750.518218,-6661.853478,-14804.118840,-77222.426198
1750.520789,-2072.576638,20133.601622,-77375.645298
1750.523360,14211.954086,1776.494261,-73851.606007
1750.525932,1332.370696,-23094.425390,-74770.920605
1750.528503,6809.894666,-14211.954086,-71553.319513
1750.531074,15100.201217,-148.041188,-74617.701505
1750.533645,-18357.107362,14804.118840,-78907.836294
1750.536217,888.247130,-5773.606348,-77835.302597
1750.538788,6809.894666,-3849.070898,-74617.701505
1750.541359,1924.535449,11547.212695,-72779.072310
1750.543930,1480.411884,15988.448347,-74770.920605
1750.546502,-11399.171507,11843.295072,-75690.235202
1750.549073,16432.571912,6217.729913,-75383.797003
1750.551644,28571.949361,444.123565,-73391.948708
1750.554215,2960.823768,-5921.647536,-77375.645298
1750.556787,-16876.695478,4589.276840,-76762.768900
1750.559358,10510.924376,26943.496289,-70940.443115
1750.561929,22650.301825,13471.748144,-71246.881314
1750.564501,888.247130,16136.489536,-74924.139704
1750.567072,-14063.912898,-17912.983796,-77988.521696
1750.569643,9030.512492,25315.043216,-74158.044206
1750.572214,28719.990550,29756.278868,-71246.881314
1750.574786,-14359.995275,10955.047942,-76762.768900
1750.577357,-38194.626607,444.123565,-75690.235202
1750.579928,-16136.489536,-5921.647536,-75537.016103
1750.582499,22798.343014,5329.482782,-74617.701505
1750.585071,8882.471304,18061.024985,-75843.454302
1750.587642,-740.205942,6513.812290,-75690.235202
1750.590213,-10955.047942,13619.789333,-74464.482406
1750.592784,-5329.482782,8290.306550,-71246.881314
1750.595361,28719.990550,-16876.695478,-72166.195912
1750.597937,-1776.494261,-14359.995275,-78601.398095
1750.600513,-4885.359217,4293.194464,-78754.617194
1750.603090,2072.576638,2960.823768,-75537.016103
1750.605666,6365.771101,-888.247130,-70480.785816
1750.608242,16136.489536,-740.205942,-68795.375720
1750.610819,2072.576638,-740.205942,-76149.892501
1750.613395,5921.647536,3256.906145,-79367.493593
1750.615971,-10510.924376,-11103.089130,-77528.864398
1750.618548,-6069.688724,25463.084405,-73698.386908
1750.621124,-1332.370696,26351.331535,-71859.757712
1750.623700,-1184.329507,7994.224174,-73391.948708
1750.626277,5329.482782,-25907.207970,-77528.864398
1750.628853,7994.224174,-4885.359217,-77069.207099
1750.631429,-1628.453072,-740.205942,-78294.959896
1750.634006,1776.494261,1480.411884,-74158.044206
1750.636582,10510.924376,-13027.624579,-72625.853210
1750.639158,-4589.276840,4441.235652,-73085.510509
1750.641735,-2664.741391,10066.800811,-76915.987999
1750.644311,9326.594869,-3849.070898,-77682.083497
1750.646887,-1776.494261,-15396.283594,-76303.111601
1750.649463,9030.512492,7698.141797,-71553.319513
1750.652040,1184.329507,25907.207970,-73545.167808
1750.654616,-25463.084405,19837.519246,-76762.768900
1750.657192,14211.954086,-2072.576638,-72166.195912
1750.659769,16728.654289,-1776.494261,-74770.920605
1750.662345,-20429.683999,15100.201217,-79367.493593
1750.664921,-1332.370696,11843.295072,-75996.673402
1750.667498,17024.736666,12731.542202,-71706.538613
1750.670074,-2072.576638,-4589.276840,-72779.072310
1750.672650,-11843.295072,20281.642811,-72932.291410
1750.675227,1628.453072,-6513.812290,-76149.892501
1750.677803,9622.677246,-2664.741391,-76456.330700
1750.680379,8290.306550,-5477.523971,-76303.111601
1750.682956,22058.137072,-4145.153275,-70327.566716
1750.685532,1628.453072,6217.729913,-72166.195912
1750.688108,-19837.519246,8438.347739,-75537.016103
1750.690685,5181.441594,1184.329507,-75843.454302
1750.693261,17468.860231,11547.212695,-75996.673402
1750.695837,1184.329507,13915.871710,-78448.178995
1750.698418,-16728.654289,13471.748144,-75537.016103
1750.700998,7105.977043,10362.883188,-69408.252119
1750.703579,18209.066173,-18209.066173,-72319.415011
1750.706160,4441.235652,-7254.018232,-77835.302597
1750.708740,-1628.453072,3108.864956,-79214.274493
1750.711321,-1628.453072,5625.565159,-77222.426198
1750.713901,-2368.659014,1184.329507,-72625.853210
1750.716482,10955.047942,1184.329507,-70021.128517
1750.719063,2812.782580,6217.729913,-74924.139704
1750.721643,-3108.864956,-5477.523971,-78601.398095
1750.724224,5921.647536,9622.677246,-78448.178995
1750.726804,11843.295072,-14952.160028,-75077.358804
1750.729385,5181.441594,-26203.290347,-70787.224015
1750.731966,-1924.535449,1332.370696,-72012.976812
1750.734546,2960.823768,28127.825796,-74924.139704
1750.737127,7105.977043,-11695.253884,-78601.398095
1750.739707,7550.100608,-31976.896694,-77682.083497
1750.742288,296.082377,-14359.995275,-75383.797003
1750.744869,2664.741391,6513.812290,-72472.634111
1750.747449,2220.617826,296.082377,-73698.386908
1750.750030,-13915.871710,5181.441594,-76915.987999
1750.752610,6217.729913,-5477.523971,-77528.864398
1750.755191,-5477.523971,3849.070898,-78141.740796
1750.757771,2220.617826,4293.194464,-74924.139704
1750.760352,14952.160028,9474.636058,-72012.976812
1750.762933,-12731.542202,14656.077652,-75077.358804
1750.765513,1924.535449,6809.894666,-73238.729609
1750.768094,16728.654289,-4441.235652,-74464.482406
1750.770674,3404.947333,-2960.823768,-77835.302597
1750.773255,-9770.718434,13323.706956,-77222.426198
1750.775836,3256.906145,14656.077652,-74617.701505
1750.778416,-7846.182985,8438.347739,-73085.510509
1750.780997,-16136.489536,19097.313304,-73391.948708
1750.783577,-444.123565,7105.977043,-76303.111601
1750.786158,-740.205942,2664.741391,-79520.712692
1750.788739,-18505.148550,31680.814318,-79673.931792
1750.791319,-19097.313304,25167.002028,-77069.207099
1750.793900,592.164754,11547.212695,-71553.319513
1750.796480,5477.523971,3256.906145,-70940.443115
1750.799061,7994.224174,12583.501014,-75996.673402
1750.801644,-8734.430116,9918.759623,-80593.246390
1750.804227,-4885.359217,3997.112087,-77222.426198
1750.806810,22502.260637,5477.523971,-70634.004916
1750.809392,-13915.871710,-592.164754,-74464.482406
1750.811975,-13027.624579,-8438.347739,-76149.892501
1750.814558,8438.347739,-12879.583391,-77528.864398
1750.817141,1776.494261,3404.947333,-77835.302597
1750.819724,12435.459826,10362.883188,-75383.797003
1750.822307,-9030.512492,-5329.482782,-75996.673402
1750.824890,-10658.965565,-9622.677246,-73238.729609
1750.827473,7254.018232,-2812.782580,-76149.892501
1750.830056,13323.706956,10955.047942,-78754.617194
1750.832638,6069.688724,14804.118840,-75843.454302
1750.835221,1036.288319,8586.388927,-74464.482406
1750.837804,3256.906145,-13767.830521,-72779.072310
1750.840387,-3701.029710,2368.659014,-72472.634111
1750.842970,-5773.606348,5477.523971,-77375.645298
1750.845553,-1480.411884,-12731.542202,-78141.740796
1750.848136,8290.306550,-15396.283594,-76762.768900
1750.850719,9474.636058,-1776.494261,-74770.920605
1750.853302,-15840.407159,15840.407159,-74770.920605
1750.855884,-11991.336260,6365.771101,-75690.235202
1750.858467,14063.912898,-11547.212695,-74311.263306
1750.861050,888.247130,-17468.860231,-77069.207099
1750.863633,4145.153275,12435.459826,-74617.701505
1750.866216,-7846.182985,24722.878463,-76303.111601
1750.868799,-14063.912898,16580.613101,-76609.549800
1750.871382,19689.478057,-888.247130,-70940.443115
1750.873965,740.205942,5921.647536,-73085.510509
1750.876548,-13767.830521,14063.912898,-77682.083497
1750.879130,12435.459826,12139.377449,-75996.673402
1750.881713,9474.636058,-5181.441594,-76915.987999
1750.884296,-2072.576638,-1776.494261,-74617.701505
1750.886879,11547.212695,-8438.347739,-71400.100414
1750.889462,2664.741391,-5773.606348,-73391.948708
1750.892045,16432.571912,-2960.823768,-73851.606007
1750.894628,12287.418637,-14063.912898,-77988.521696
1750.897211,1036.288319,3552.988522,-76303.111601
1750.899794,-592.164754,7105.977043,-74311.263306
1750.902376,2664.741391,6365.771101,-71093.662214
1750.904961,3256.906145,-888.247130,-74158.044206
1750.907546,-2516.700203,9770.718434,-76456.330700
1750.910130,6957.935855,10066.800811,-76609.549800
1750.912715,9178.553681,5329.482782,-76303.111601
1750.915300,-18801.230927,-2072.576638,-77835.302597
1750.917884,2072.576638,-6217.729913,-72932.291410
1750.920469,3997.112087,-5181.441594,-74311.263306
1750.923054,-296.082377,-1628.453072,-77069.207099
1750.925638,10955.047942,5033.400406,-76609.549800
1750.928223,-9474.636058,-1480.411884,-77682.083497
1750.930808,-8142.265362,-8734.430116,-74311.263306
1750.933392,7846.182985,-2368.659014,-73085.510509
1750.935977,3404.947333,-18801.230927,-76609.549800
1750.938562,-4145.153275,-21910.095883,-78294.959896
1750.941146,-5033.400406,-7994.224174,-77988.521696
1750.943731,444.123565,888.247130,-75843.454302
1750.946316,12435.459826,-33605.349767,-74924.139704
1750.948900,5329.482782,-39230.914926,-73851.606007
1750.951485,-3256.906145,-3108.864956,-76915.987999
1750.954070,-3552.988522,18209.066173,-76303.111601
1750.956654,-6661.853478,-3108.864956,-78141.740796
1750.959239,-2812.782580,-10362.883188,-76915.987999
1750.961824,-2960.823768,10510.924376,-73391.948708
1750.964408,12583.501014,-1776.494261,-74924.139704
1750.966993,-7994.224174,-12583.501014,-77528.864398
1750.969578,2516.700203,2220.617826,-74464.482406
1750.972162,8142.265362,21317.931130,-74004.825107
1750.974747,-12583.501014,21169.889941,-77835.302597
1750.977332,9326.594869,1184.329507,-74311.263306
1750.979916,4589.276840,-5921.647536,-73391.948708
1750.982501,-14063.912898,17172.777854,-75843.454302
1750.985086,3849.070898,26055.249158,-75843.454302
1750.987670,0.000000,4589.276840,-76609.549800
1750.990255,2072.576638,-19985.560434,-74004.825107
1750.992840,13471.748144,-20873.807564,-72932.291410
1750.995424,-6513.812290,-5477.523971,-75996.673402
1750.998009,-38638.750172,13767.830521,-81665.780087
1751.000594,-35381.844028,28423.908173,-83044.751983
1751.003178,-3849.070898,10955.047942,-76303.111601
1751.005763,14359.995275,27683.702231,-71093.662214
1751.008314,-5329.482782,29164.114115,-72472.634111
1751.010865,-15692.365970,10807.006753,-76762.768900
1751.013416,3997.112087,-7698.141797,-75537.016103
1751.015967,4293.194464,-2368.659014,-75843.454302
1751.018518,22798.343014,2960.823768,-72319.415011
1751.021069,-888.247130,-9474.636058,-77222.426198
1751.023621,-23982.672521,-5329.482782,-78754.617194
1751.026172,9030.512492,-10362.883188,-75230.577904
1751.028723,9622.677246,-6809.894666,-74770.920605
1751.031274,4885.359217,1628.453072,-75077.358804
1751.033825,-5033.400406,444.123565,-77835.302597
1751.036376,-12139.377449,-7994.224174,-78141.740796
1751.038927,-1480.411884,-11991.336260,-76303.111601
1751.041478,3108.864956,-21021.848753,-74617.701505
1751.044029,-5773.606348,-7254.018232,-76149.892501
1751.046580,-9178.553681,38342.667796,-75690.235202
1751.049131,3701.029710,18505.148550,-74617.701505
1751.051682,10510.924376,-38046.585419,-74617.701505
1751.054233,6957.935855,-12731.542202,-74464.482406
1751.056784,-4737.318029,23686.590144,-75537.016103
1751.059335,-6661.853478,10066.800811,-77375.645298
1751.061887,-3701.029710,-8734.430116,-74924.139704
1751.064438,31384.731941,-7698.141797,-71553.319513
1751.066989,18801.230927,148.041188,-72319.415011
1751.069540,-7846.182985,4293.194464,-76456.330700
1751.072091,2664.741391,10214.842000,-75230.577904
1751.074642,2368.659014,10214.842000,-73545.167808
1751.077193,10510.924376,13175.665768,-73391.948708
1751.079744,12139.377449,8734.430116,-74158.044206
1751.082295,-15988.448347,8438.347739,-76303.111601
1751.084846,3849.070898,13323.706956,-73698.386908
1751.087397,20429.683999,-592.164754,-73698.386908
1751.089948,-3701.029710,-8438.347739,-75537.016103
1751.092499,3997.112087,20725.766376,-73085.510509
1751.095050,17616.901420,-6365.771101,-72472.634111
1751.097601,14063.912898,-16136.489536,-72932.291410
1751.100153,5773.606348,-8438.347739,-75537.016103
1751.102704,-12583.501014,27535.661042,-77069.207099
1751.105255,-18949.272115,18209.066173,-79214.274493
1751.107806,2516.700203,16432.571912,-74311.263306
1751.110364,9622.677246,2960.823768,-71859.757712
1751.112923,4441.235652,13175.665768,-74004.825107
1751.115482,-10362.883188,6217.729913,-77069.207099
1751.118041,148.041188,3997.112087,-74464.482406
1751.120600,27387.619854,6661.853478,-71246.881314
1751.123158,-7846.182985,-9918.759623,-77528.864398
1751.125717,-17024.736666,-6661.853478,-78294.959896
1751.128276,0.000000,-9918.759623,-76456.330700
1751.130835,7105.977043,-296.082377,-74464.482406
1751.133393,10214.842000,5033.400406,-74004.825107
1751.135952,-11695.253884,2664.741391,-77528.864398
1751.138511,-6513.812290,-7105.977043,-76609.549800
1751.141070,296.082377,-1332.370696,-76303.111601
1751.143629,8734.430116,-4737.318029,-75690.235202
1751.146187,-888.247130,26203.290347,-74617.701505
1751.148746,-2368.659014,22206.178260,-75077.358804
1751.151305,5921.647536,22650.301825,-74311.263306
1751.153864,4737.318029,11399.171507,-72625.853210
1751.156422,1628.453072,8142.265362,-75383.797003
1751.158981,296.082377,1036.288319,-75230.577904
1751.161540,7846.182985,-1184.329507,-74924.139704
1751.164099,2368.659014,-1332.370696,-74004.825107
1751.166658,12879.583391,-8586.388927,-72932.291410
1751.169216,8290.306550,-4885.359217,-73851.606007
1751.171775,5625.565159,-2072.576638,-74464.482406
1751.174334,4441.235652,21614.013506,-75077.358804
1751.176893,-18949.272115,13619.789333,-77682.083497
1751.179451,10066.800811,12731.542202,-72932.291410
1751.182010,20577.725188,6661.853478,-71859.757712
1751.184569,-15100.201217,14656.077652,-75537.016103
1751.187128,7402.059420,7550.100608,-74004.825107
1751.189687,24426.796086,-9326.594869,-73391.948708
1751.192245,-2960.823768,148.041188,-77069.207099
1751.194804,-7254.018232,-10362.883188,-75843.454302
1751.197363,-1480.411884,22798.343014,-74924.139704
1751.199922,-17468.860231,15988.448347,-72932.291410
1751.202480,-6217.729913,16284.530724,-77069.207099
1751.205039,5181.441594,-3849.070898,-75230.577904
1751.207598,19097.313304,7105.977043,-73698.386908
1751.210157,10955.047942,26055.249158,-71706.538613
1751.212722,-2960.823768,21465.972318,-75077.358804
1751.215287,2368.659014,4145.153275,-73851.606007
1751.217852,10066.800811,444.123565,-74464.482406
1751.220417,1036.288319,2960.823768,-75690.235202
1751.222982,12287.418637,7994.224174,-74617.701505
1751.225547,-11695.253884,-14211.954086,-77988.521696
1751.228112,-4145.153275,-5625.565159,-75230.577904
1751.230677,12287.418637,-1332.370696,-73391.948708
1751.233242,6513.812290,-6069.688724,-74617.701505
1751.235807,5181.441594,-6513.812290,-75690.235202
1751.238372,2812.782580,-296.082377,-75996.673402
1751.240938,-6513.812290,-2664.741391,-77375.645298
1751.243503,-740.205942,9030.512492,-74617.701505
1751.246068,14063.912898,16284.530724,-73698.386908
1751.248633,12139.377449,7254.018232,-73085.510509
1751.251198,11843.295072,-5773.606348,-72319.415011
1751.253763,15248.242405,-15840.407159,-73698.386908
1751.256328,9474.636058,-16432.571912,-74617.701505
1751.258893,5921.647536,-3108.864956,-75690.235202
1751.261458,3701.029710,-15100.201217,-75537.016103
1751.264023,2960.823768,-25315.043216,-75843.454302
1751.266588,8734.430116,-13175.665768,-74004.825107
1751.269153,-4737.318029,17616.901420,-74464.482406
1751.271718,-3997.112087,5329.482782,-77528.864398
1751.274283,-5773.606348,-10807.006753,-76915.987999
1751.276849,15840.407159,5033.400406,-71553.319513
1751.279414,-592.164754,24426.796086,-74617.701505
1751.281979,-18209.066173,20873.807564,-77835.302597
1751.284544,15100.201217,-3108.864956,-73851.606007
1751.287109,3849.070898,1480.411884,-74924.139704
1751.289674,-13915.871710,21465.972318,-76303.111601
1751.292239,8734.430116,14063.912898,-73698.386908
1751.294810,4737.318029,11251.130318,-73085.510509
1751.297380,14656.077652,-34789.679274,-74158.044206
1751.299951,23834.631332,-444.123565,-70327.566716
1751.302521,-9918.759623,17320.819043,-77528.864398
1751.305092,-8290.306550,-7105.977043,-78448.178995
1751.307663,25167.002028,-14804.118840,-70940.443115
1751.310233,26943.496289,26203.290347,-69714.690318
1751.312804,-3256.906145,31976.896694,-74924.139704
1751.315375,-13323.706956,-7402.059420,-77222.426198
1751.317945,7402.059420,592.164754,-72472.634111
1751.320516,19837.519246,11695.253884,-72625.853210
1751.323087,-7698.141797,16728.654289,-77682.083497
1751.325657,-33013.185013,-740.205942,-80746.465489
1751.328228,-11399.171507,-10362.883188,-77528.864398
1751.330798,17468.860231,-9326.594869,-74311.263306
1751.333369,3552.988522,9622.677246,-73851.606007
1751.335940,1776.494261,3256.906145,-75537.016103
1751.338510,-7698.141797,-2960.823768,-77222.426198
1751.341081,-3849.070898,-4293.194464,-76609.549800
1751.343652,11991.336260,11251.130318,-74770.920605
1751.346222,5477.523971,-7105.977043,-76149.892501
1751.348793,-10362.883188,22798.343014,-76609.549800
1751.351364,-7846.182985,24426.796086,-76149.892501
1751.353934,4293.194464,-2368.659014,-74924.139704
1751.356505,6809.894666,-17616.901420,-74617.701505
1751.359075,5033.400406,-5921.647536,-75383.797003
1751.361646,-2072.576638,10658.965565,-75996.673402
1751.364217,-4145.153275,-1924.535449,-77835.302597
1751.366787,-10510.924376,-2960.823768,-75077.358804
1751.369358,6217.729913,8882.471304,-72779.072310
1751.371929,12731.542202,-9178.553681,-75383.797003
1751.374499,-6217.729913,-8438.347739,-76609.549800
1751.377070,5181.441594,18801.230927,-73851.606007
1751.379641,-13619.789333,19097.313304,-75537.016103
1751.382211,1480.411884,18653.189738,-72625.853210
1751.384782,25167.002028,5773.606348,-71246.881314
1751.387352,8142.265362,-148.041188,-73851.606007
1751.389923,-13619.789333,17616.901420,-76609.549800
1751.392494,3997.112087,7698.141797,-75996.673402
1751.395064,13175.665768,8142.265362,-73851.606007
1751.397638,2368.659014,13619.789333,-72319.415011
1751.400212,-6217.729913,24426.796086,-74464.482406
1751.402787,-2516.700203,36566.173535,-74311.263306
1751.405361,592.164754,12287.418637,-75230.577904
1751.407935,13027.624579,23834.631332,-71859.757712
1751.410509,10807.006753,24574.837274,-72932.291410
1751.413083,1480.411884,14359.995275,-74464.482406
1751.415657,-444.123565,444.123565,-73851.606007
1751.418231,-6069.688724,2072.576638,-75996.673402
1751.420805,6217.729913,4145.153275,-73851.606007
1751.423379,15840.407159,9622.677246,-74770.920605
1751.425953,-15396.283594,-2960.823768,-77988.521696
1751.428527,-3256.906145,-9178.553681,-75843.454302
1751.431101,3552.988522,-5181.441594,-74617.701505
1751.433675,5181.441594,3552.988522,-72625.853210
1751.436249,8142.265362,9770.718434,-74464.482406
1751.438823,-3701.029710,1036.288319,-76456.330700
1751.441397,5181.441594,-7550.100608,-74464.482406
1751.443971,11103.089130,2812.782580,-73851.606007
1751.446545,11547.212695,27831.743419,-74770.920605
1751.449119,-6365.771101,32421.020260,-74311.263306
1751.451693,-6661.853478,-1924.535449,-76303.111601
1751.454267,-6217.729913,-10214.842000,-76609.549800
1751.456842,-6661.853478,15840.407159,-78141.740796
1751.459416,-6661.853478,6365.771101,-77222.426198
1751.461990,3552.988522,-16876.695478,-75843.454302
1751.464564,13323.706956,-22798.343014,-72779.072310
1751.467138,-740.205942,5329.482782,-75690.235202
1751.469712,-25018.960840,14508.036463,-79367.493593
1751.472286,444.123565,-14063.912898,-77988.521696
1751.474860,2960.823768,-10214.842000,-75537.016103
1751.477434,5477.523971,22058.137072,-73238.729609
1751.480008,7550.100608,21169.889941,-72625.853210
1751.482582,-18505.148550,18801.230927,-77069.207099
1751.485156,3404.947333,-1036.288319,-75383.797003
1751.487730,7105.977043,-2812.782580,-74617.701505
1751.490304,-12731.542202,22354.219448,-75996.673402
1751.492878,-1184.329507,17764.942608,-75077.358804
1751.495452,10362.883188,26351.331535,-72932.291410
1751.498026,5625.565159,17320.819043,-72166.195912
1751.500602,2960.823768,4737.318029,-71859.757712
1751.503179,21465.972318,-14508.036463,-71400.100414
1751.505756,32124.937883,-5773.606348,-73085.510509
1751.508333,6809.894666,1480.411884,-74924.139704
1751.510910,5181.441594,17468.860231,-74924.139704
1751.513487,-1480.411884,888.247130,-74464.482406
1751.516064,9918.759623,5773.606348,-72166.195912
1751.518641,5477.523971,13323.706956,-75690.235202
1751.521218,-15544.324782,13915.871710,-77682.083497
1751.523795,10510.924376,12287.418637,-73851.606007
1751.526372,11251.130318,-15396.283594,-74617.701505
1751.528949,-5329.482782,-4293.194464,-75690.235202
1751.531526,2516.700203,-3997.112087,-76456.330700
1751.534103,-6957.935855,-9622.677246,-77222.426198
1751.536680,6513.812290,1184.329507,-74464.482406
1751.539257,1628.453072,5773.606348,-76915.987999
1751.541834,-6217.729913,1776.494261,-77222.426198
1751.544411,-6069.688724,-12879.583391,-77222.426198
1751.546988,4885.359217,10066.800811,-73698.386908
1751.549565,-2220.617826,23834.631332,-75230.577904
1751.552141,-9474.636058,28719.990550,-74924.139704
1751.554718,-10658.965565,32865.143825,-74924.139704
1751.557295,-1628.453072,16580.613101,-77835.302597
1751.559872,-5329.482782,3997.112087,-76609.549800
1751.562449,296.082377,-740.205942,-74770.920605
1751.565026,-148.041188,1036.288319,-74004.825107
1751.567603,16876.695478,-13767.830521,-72472.634111
1751.570180,15248.242405,-9770.718434,-73698.386908
1751.572757,7550.100608,-6069.688724,-74924.139704
1751.575334,4293.194464,19393.395680,-75996.673402
1751.577911,-21614.013506,17024.736666,-77528.864398
1751.580488,9622.677246,13323.706956,-70940.443115
1751.583065,22798.343014,6661.853478,-70787.224015
1751.585642,-13323.706956,15248.242405,-75230.577904
1751.588219,5477.523971,6365.771101,-75077.358804
1751.590796,17764.942608,-8734.430116,-75077.358804
1751.593373,-444.123565,3256.906145,-75230.577904
1751.595950,-8734.430116,21762.054695,-75230.577904
1751.598527,-13767.830521,78905.953417,-74924.139704
1751.601104,-8290.306550,3108.864956,-75230.577904
1751.603682,-20725.766376,7254.018232,-80593.246390
1751.606260,33901.432144,-2220.617826,-68182.499322
1751.608838,28868.031738,41451.532752,-68642.156621
1751.611416,-6365.771101,33161.226202,-74617.701505
1751.613995,-1480.411884,-11547.212695,-75843.454302
1751.616573,15396.283594,-19097.313304,-72166.195912
1751.619151,9622.677246,4145.153275,-74158.044206
1751.621729,-740.205942,19245.354492,-78448.178995
1751.624308,-33605.349767,444.123565,-81052.903688
1751.626886,11695.253884,-6957.935855,-73391.948708
1751.629464,24278.754898,-3552.988522,-71400.100414
1751.632042,-8290.306550,9622.677246,-75383.797003
1751.634621,-5033.400406,6217.729913,-75537.016103
1751.637199,-8586.388927,4589.276840,-77988.521696
1751.639777,-6661.853478,-3997.112087,-76762.768900
1751.642355,3849.070898,-13619.789333,-75383.797003
1751.644933,10658.965565,-14211.954086,-75077.358804
1751.647512,-888.247130,-12731.542202,-74617.701505
1751.650090,-3849.070898,-18653.189738,-75383.797003
1751.652668,888.247130,-6513.812290,-75537.016103
1751.655246,2368.659014,-5921.647536,-78754.617194
1751.657825,-9326.594869,-11991.336260,-79214.274493
1751.660403,-3849.070898,4145.153275,-75230.577904
1751.662981,2516.700203,6365.771101,-73545.167808
1751.665559,4293.194464,9770.718434,-72625.853210
1751.668138,7402.059420,-5773.606348,-74617.701505
1751.670716,2072.576638,6069.688724,-75230.577904
1751.673294,3701.029710,17764.942608,-76915.987999
1751.675872,-9326.594869,10362.883188,-75690.235202
1751.678450,24426.796086,5773.606348,-68948.594820
1751.681029,14508.036463,6365.771101,-72319.415011
1751.683607,-16728.654289,13619.789333,-76915.987999
1751.686185,10510.924376,2368.659014,-75383.797003
1751.688763,13175.665768,-6217.729913,-75537.016103
1751.691342,-8882.471304,24574.837274,-75383.797003
1751.693920,-5329.482782,34641.638086,-75690.235202
1751.696498,-18357.107362,28719.990550,-76609.549800
1751.699076,-5181.441594,25315.043216,-74617.701505
1751.701655,-2664.741391,27535.661042,-73545.167808
1751.704233,-1776.494261,35677.926404,-76915.987999
1751.706812,-1628.453072,16728.654289,-75383.797003
1751.709392,2368.659014,4293.194464,-73851.606007
1751.711971,9622.677246,17764.942608,-71859.757712
1751.714551,-5773.606348,6513.812290,-74924.139704
1751.717130,-888.247130,-2072.576638,-75077.358804
1751.719710,29460.196492,5181.441594,-72472.634111
1751.722289,-3849.070898,-10955.047942,-78141.740796
1751.724869,-15692.365970,-5329.482782,-77528.864398
1751.727448,-6365.771101,-9178.553681,-76303.111601
1751.730028,-4293.194464,-13175.665768,-75690.235202
1751.732607,9918.759623,2664.741391,-73851.606007
1751.735187,296.082377,6217.729913,-77375.645298
1751.737766,-10510.924376,-1332.370696,-77528.864398
1751.740346,-2812.782580,-30052.361245,-77988.521696
1751.742925,1480.411884,-17320.819043,-75537.016103
1751.745505,-5329.482782,3997.112087,-75690.235202
1751.748084,-888.247130,15396.283594,-75537.016103
1751.750664,9474.636058,-28719.990550,-76303.111601
1751.753243,9918.759623,-28275.866984,-76303.111601
1751.755823,7550.100608,-1184.329507,-75843.454302
1751.758402,-3256.906145,5773.606348,-74464.482406
1751.760982,-17024.736666,2368.659014,-77988.521696
1751.763561,-28868.031738,296.082377,-79520.712692
1751.766141,14656.077652,-17172.777854,-75383.797003
1751.768720,10066.800811,-2960.823768,-74617.701505
1751.771300,4589.276840,17912.983796,-76609.549800
1751.773879,-15988.448347,14211.954086,-77835.302597
1751.776459,-4441.235652,11547.212695,-73698.386908
1751.779038,18949.272115,5773.606348,-70327.566716
1751.781618,-10807.006753,14804.118840,-74617.701505
1751.784197,-7105.977043,12139.377449,-76915.987999
1751.786777,18061.024985,-9770.718434,-75077.358804
1751.789356,11843.295072,5477.523971,-74158.044206
1751.791936,-7994.224174,27979.784608,-72472.634111
1751.794515,-18949.272115,49149.674549,-74924.139704
1751.797095,-3256.906145,31976.896694,-75383.797003
1751.799674,25018.960840,-10807.006753,-70634.004916
1751.802254,25315.043216,27535.661042,-69714.690318
1751.804833,2368.659014,28423.908173,-74158.044206
1751.807413,-1776.494261,-6217.729913,-75383.797003
1751.809960,16728.654289,-4589.276840,-69101.813920
1751.812507,20577.725188,11103.089130,-71093.662214
1751.815054,-23982.672521,19245.354492,-79827.150892
1751.817602,-17616.901420,7846.182985,-78448.178995
1751.820149,35085.761651,-15692.365970,-76762.768900
1751.822696,20725.766376,-444.123565,-70634.004916
1751.825243,10510.924376,12731.542202,-70634.004916
1751.827791,-4441.235652,1036.288319,-75383.797003
1751.830338,444.123565,-10510.924376,-75843.454302
1751.832885,19689.478057,-6809.894666,-74617.701505
1751.835432,10214.842000,-10066.800811,-75690.235202
1751.837979,888.247130,-4589.276840,-76149.892501
1751.840527,6513.812290,-41303.491564,-74158.044206
1751.843074,12583.501014,-11843.295072,-73698.386908
1751.845621,14804.118840,-17172.777854,-73238.729609
1751.848168,9474.636058,-43820.191766,-76609.549800
1751.850716,8438.347739,-3108.864956,-74617.701505
1751.853263,8142.265362,6957.935855,-75230.577904
1751.855810,-12287.418637,7550.100608,-74311.263306
1751.858357,10362.883188,-296.082377,-71859.757712
1751.860904,25018.960840,-8734.430116,-71093.662214
1751.863452,3552.988522,5033.400406,-75690.235202
1751.865999,-6365.771101,17320.819043,-78294.959896
1751.868546,-4441.235652,11547.212695,-75690.235202
1751.871093,25611.125593,7105.977043,-68795.375720
1751.873641,10510.924376,12435.459826,-71246.881314
1751.876188,-5181.441594,9326.594869,-75230.577904
1751.878735,3256.906145,-9030.512492,-76915.987999
1751.881282,1036.288319,-296.082377,-77222.426198
1751.883829,2664.741391,-8586.388927,-75383.797003
1751.886377,4885.359217,-1628.453072,-74004.825107
1751.888924,-10066.800811,20281.642811,-74464.482406
1751.891471,-46632.974346,65730.287650,-79673.931792
1751.894018,-30200.402434,12731.542202,-80746.465489
1751.896566,16432.571912,0.000000,-73698.386908
1751.899113,24574.837274,37306.379477,-70480.785816
1751.901660,-2664.741391,36122.049970,-73391.948708
1751.904207,-4737.318029,3552.988522,-73545.167808
1751.906755,21169.889941,-10510.924376,-71400.100414
1751.909302,-148.041188,3997.112087,-75230.577904
1751.911856,3997.112087,1628.453072,-75537.016103
1751.914410,8586.388927,-11695.253884,-77375.645298
1751.916964,-10807.006753,-4589.276840,-76915.987999
1751.919518,4589.276840,2664.741391,-72779.072310
1751.922072,1036.288319,-3256.906145,-74158.044206
1751.924626,1184.329507,-6069.688724,-74617.701505
1751.927181,5033.400406,-5921.647536,-77069.207099
1751.929735,-3108.864956,3108.864956,-78448.178995
1751.932289,-7105.977043,-17172.777854,-77835.302597
1751.934843,-1924.535449,18209.066173,-75077.358804
1751.937397,-2960.823768,22206.178260,-74464.482406
1751.939951,6069.688724,17024.736666,-74311.263306
1751.942505,5625.565159,-10066.800811,-75077.358804
1751.945059,-3404.947333,-3552.988522,-77682.083497
1751.947613,3552.988522,6217.729913,-75537.016103
1751.950168,-10214.842000,8438.347739,-74311.263306
1751.952722,11399.171507,-592.164754,-72012.976812
1751.955276,17616.901420,-10214.842000,-71859.757712
1751.957830,11399.171507,592.164754,-74004.825107
1751.960384,-3849.070898,10510.924376,-78294.959896
1751.962938,-3849.070898,9178.553681,-75383.797003
1751.965492,23686.590144,11399.171507,-69408.252119
1751.968046,2812.782580,17616.901420,-71553.319513
1751.970600,-8882.471304,12287.418637,-74924.139704
1751.973155,3256.906145,7846.182985,-75996.673402
1751.975709,5625.565159,1332.370696,-77069.207099
1751.978263,-4885.359217,-888.247130,-76762.768900
1751.980817,-6957.935855,30940.608376,-72779.072310
1751.983371,-12731.542202,28571.949361,-75383.797003
1751.985925,-9622.677246,4145.153275,-74617.701505
1751.988479,-6069.688724,24574.837274,-74464.482406
1751.991033,-5625.565159,24870.919651,-77528.864398
1751.993587,-3404.947333,21317.931130,-76762.768900
1751.996142,3256.906145,888.247130,-74004.825107
1751.998696,8734.430116,13767.830521,-69867.909418
1752.001250,2516.700203,12583.501014,-73545.167808
1752.003804,-14211.954086,5921.647536,-77682.083497
1752.006358,-15692.365970,3552.988522,-78907.836294
1752.008912,19985.560434,-18357.107362,-75230.577904
1752.011466,8882.471304,-2072.576638,-73238.729609
1752.014026,1776.494261,4737.318029,-72779.072310
1752.016587,-2368.659014,-4885.359217,-74464.482406
1752.019147,5625.565159,-13619.789333,-74004.825107
1752.021707,12287.418637,-10362.883188,-75383.797003
1752.024268,3997.112087,9770.718434,-77528.864398
1752.026828,-6069.688724,-148.041188,-77682.083497
1752.029388,-6069.688724,21021.848753,-74004.825107
1752.031948,-740.205942,-5921.647536,-73698.386908
1752.034509,9326.594869,-34345.555709,-76149.892501
1752.037069,5625.565159,-32865.143825,-76762.768900
1752.039629,-4589.276840,-7550.100608,-79520.712692
1752.042189,-3701.029710,-10955.047942,-79367.493593
1752.044750,-10807.006753,-9178.553681,-75383.797003
1752.047310,888.247130,13767.830521,-71859.757712
1752.049870,4737.318029,3997.112087,-73545.167808
1752.052431,0.000000,-888.247130,-76762.768900
1752.054991,7254.018232,10362.883188,-77528.864398
1752.057551,-13767.830521,17912.983796,-77375.645298
1752.060111,8586.388927,19245.354492,-71553.319513
1752.062672,16136.489536,5477.523971,-69867.909418
1752.065232,-6513.812290,17320.819043,-73085.510509
1752.067792,-3552.988522,15692.365970,-76149.892501
1752.070353,11695.253884,7105.977043,-77222.426198
1752.072913,2368.659014,-23094.425390,-76915.987999
1752.075473,-10510.924376,21021.848753,-75383.797003
1752.078033,-20429.683999,58772.351795,-75690.235202
1752.080594,-20577.725188,33901.432144,-75230.577904
1752.083154,7698.141797,-296.082377,-72472.634111
1752.085714,22206.178260,18061.024985,-73238.729609
1752.088274,7254.018232,28275.866984,-74464.482406
1752.090835,-3849.070898,14804.118840,-75996.673402
1752.093395,4589.276840,-7402.059420,-71859.757712
1752.095955,2220.617826,-12139.377449,-72166.195912
1752.098516,27535.661042,1628.453072,-71706.538613
1752.101076,-1036.288319,-5329.482782,-78907.836294
1752.103636,-13471.748144,-3552.988522,-79214.274493
1752.106196,296.082377,-8882.471304,-75996.673402
1752.108757,-2516.700203,296.082377,-72166.195912
1752.111317,-148.041188,11843.295072,-72472.634111
1752.113877,-4885.359217,14063.912898,-75843.454302
1752.116442,-2516.700203,1480.411884,-77375.645298
1752.119006,6217.729913,-22206.178260,-77682.083497
1752.121571,-148.041188,2960.823768,-74770.920605
1752.124135,-12583.501014,13027.624579,-73238.729609
1752.126700,-6513.812290,-34789.679274,-75690.235202
1752.129264,-2516.700203,-30200.402434,-79520.712692
1752.131829,-1184.329507,-31088.649564,-79827.150892
1752.134393,2812.782580,-13767.830521,-77988.521696
1752.136958,-888.247130,1480.411884,-75077.358804
1752.139522,18357.107362,2960.823768,-70174.347617
1752.142087,9030.512492,2812.782580,-71706.538613
1752.144651,-2516.700203,2072.576638,-76149.892501
1752.147216,-1036.288319,4441.235652,-78141.740796
1752.149780,10066.800811,5773.606348,-76456.330700
1752.152345,21169.889941,7254.018232,-72625.853210
1752.154909,-10807.006753,19097.313304,-73698.386908
1752.157474,-13323.706956,21021.848753,-73545.167808
1752.160038,11695.253884,-888.247130,-74770.920605
1752.162603,8438.347739,-9622.677246,-78294.959896
1752.165168,-8290.306550,19097.313304,-77528.864398
1752.167732,7105.977043,-13767.830521,-74770.920605
1752.170297,27239.578666,-3849.070898,-68642.156621
1752.172861,-1036.288319,32421.020260,-71246.881314
1752.175426,-22354.219448,7402.059420,-78141.740796
1752.177990,2072.576638,-2368.659014,-76149.892501
1752.180555,18505.148550,20873.807564,-74924.139704
1752.183119,1776.494261,32865.143825,-74311.263306
1752.185684,-15248.242405,21169.889941,-74617.701505
1752.188248,-10214.842000,-1036.288319,-72779.072310
1752.190813,29460.196492,-7698.141797,-71093.662214
1752.193377,2220.617826,-1628.453072,-77835.302597
1752.195942,-8586.388927,-8734.430116,-80899.684589
1752.198506,-4737.318029,-10510.924376,-77375.645298
1752.201071,5329.482782,4145.153275,-71400.100414
1752.203635,7846.182985,13323.706956,-70634.004916
1752.206200,2368.659014,-1776.494261,-73851.606007
1752.208764,9918.759623,-19689.478057,-77222.426198
1752.211329,12583.501014,10658.965565,-77375.645298
1752.213893,11547.212695,-1036.288319,-77375.645298
