#time,accel_x,accel_y,accel_z
1886.385053,2516.700203,3108.864956,-75383.797003
1886.387607,2072.576638,3256.906145,-75230.577904
1886.390161,2516.700203,3404.947333,-75537.016103
1886.392716,1924.535449,2516.700203,-74924.139704
1886.395270,1480.411884,1776.494261,-75996.673402
1886.397824,2516.700203,3108.864956,-75230.577904
1886.400378,2072.576638,2960.823768,-75077.358804
1886.402932,1628.453072,2960.823768,-75077.358804
1886.405486,3701.029710,-444.123565,-75537.016103
1886.408040,6069.688724,-4885.359217,-77835.302597
1886.410594,15988.448347,-20873.807564,-74004.825107
1886.413148,-12139.377449,-23686.590144,-79214.274493
1886.415702,-26647.413912,3997.112087,-76303.111601
1886.418256,-148.041188,-8882.471304,-76149.892501
1886.420810,-22798.343014,22354.219448,-77988.521696
1886.423364,-36566.173535,13767.830521,-77835.302597
1886.425918,-888.247130,2960.823768,-75383.797003
1886.428472,20429.683999,-8290.306550,-75537.016103
1886.431026,3404.947333,-7402.059420,-77528.864398
1886.433580,1776.494261,-1628.453072,-73391.948708
1886.436134,4145.153275,7254.018232,-71859.757712
1886.438688,2220.617826,-2072.576638,-75383.797003
1886.441242,-9030.512492,1628.453072,-77069.207099
1886.443796,-2368.659014,-592.164754,-76762.768900
1886.446350,-5477.523971,-296.082377,-79061.055394
1886.448904,9770.718434,1776.494261,-75077.358804
1886.451460,25167.002028,6809.894666,-69867.909418
1886.454016,10955.047942,6217.729913,-74311.263306
1886.456572,-3701.029710,-592.164754,-77835.302597
1886.459128,-888.247130,-148.041188,-76456.330700
1886.461684,1776.494261,18209.066173,-74311.263306
1886.464240,-1628.453072,19541.436869,-75383.797003
1886.466796,11843.295072,11251.130318,-72625.853210
1886.469352,14359.995275,24870.919651,-71246.881314
1886.471908,17616.901420,13175.665768,-72932.291410
1886.474464,24130.713709,1036.288319,-71246.881314
1886.477020,27535.661042,-16580.613101,-73391.948708
1886.479576,-31384.731941,9622.677246,-83197.971083
1886.482132,-62917.505070,18801.230927,-84883.381178
1886.484688,-17616.901420,23242.466579,-77988.521696
1886.487244,30792.567187,14656.077652,-69101.813920
1886.489800,29756.278868,7550.100608,-72625.853210
1886.492356,740.205942,6809.894666,-74158.044206
1886.494912,5181.441594,-3997.112087,-74770.920605
1886.497468,15840.407159,-4589.276840,-73545.167808
1886.500024,1036.288319,-148.041188,-75690.235202
1886.502580,592.164754,5773.606348,-75843.454302
1886.505136,-8290.306550,4885.359217,-75996.673402
1886.507692,11695.253884,4293.194464,-74924.139704
1886.510248,-444.123565,6661.853478,-75690.235202
1886.512804,5625.565159,-148.041188,-75077.358804
1886.515360,10066.800811,12731.542202,-72932.291410
1886.517916,7402.059420,4737.318029,-75230.577904
1886.520472,-15988.448347,-2368.659014,-79673.931792
1886.523028,6069.688724,-4293.194464,-72625.853210
1886.525584,15988.448347,11991.336260,-69408.252119
1886.528140,18357.107362,4737.318029,-71093.662214
1886.530696,-24722.878463,-12583.501014,-80133.589091
1886.533252,11991.336260,-4441.235652,-74464.482406
1886.535808,-3701.029710,4589.276840,-74158.044206
1886.538364,4145.153275,4293.194464,-73851.606007
1886.540920,-17172.777854,-6365.771101,-76149.892501
1886.543476,10955.047942,7698.141797,-74311.263306
1886.546032,-13619.789333,7698.141797,-76915.987999
1886.548588,13619.789333,13175.665768,-75230.577904
1886.551144,-14656.077652,-592.164754,-75843.454302
1886.553556,11251.130318,3552.988522,-72166.195912
1886.555968,888.247130,11547.212695,-73698.386908
1886.558381,-148.041188,6365.771101,-76303.111601
1886.560793,-10362.883188,-3997.112087,-77682.083497
1886.563205,8586.388927,-6661.853478,-75843.454302
1886.565617,7994.224174,-4441.235652,-75843.454302
1886.568029,-20577.725188,3404.947333,-76303.111601
1886.570441,2220.617826,-7254.018232,-75996.673402
1886.572853,-1480.411884,-2812.782580,-78907.836294
1886.575266,-45152.562462,6217.729913,-81665.780087
1886.577678,1036.288319,5625.565159,-76762.768900
1886.580090,8438.347739,592.164754,-75230.577904
1886.582502,-7846.182985,-8438.347739,-73085.510509
1886.584914,2516.700203,2072.576638,-72472.634111
1886.587326,-3256.906145,740.205942,-74924.139704
1886.589738,-10066.800811,2368.659014,-77222.426198
1886.592151,-3552.988522,5329.482782,-76762.768900
1886.594563,-7698.141797,12583.501014,-75690.235202
1886.596975,6069.688724,888.247130,-73238.729609
1886.599387,24722.878463,888.247130,-69408.252119
1886.601799,5773.606348,5477.523971,-74464.482406
1886.604211,-14804.118840,-444.123565,-77988.521696
1886.606623,-6513.812290,296.082377,-76915.987999
1886.609036,16284.530724,-3108.864956,-72472.634111
1886.611448,-19245.354492,9622.677246,-74924.139704
1886.613860,-740.205942,7254.018232,-75383.797003
1886.616272,-3256.906145,-4145.153275,-77375.645298
1886.618684,8586.388927,-1036.288319,-75690.235202
1886.621096,13323.706956,17468.860231,-74158.044206
1886.623508,14211.954086,8438.347739,-75230.577904
1886.625921,592.164754,5181.441594,-75230.577904
1886.628333,12287.418637,592.164754,-73391.948708
1886.630745,-8142.265362,13323.706956,-75690.235202
1886.633157,2812.782580,7254.018232,-76915.987999
1886.635569,740.205942,-2516.700203,-75996.673402
1886.637981,25167.002028,1480.411884,-71246.881314
1886.640394,-1480.411884,8734.430116,-75996.673402
1886.642806,6365.771101,4293.194464,-76149.892501
1886.645218,14508.036463,3701.029710,-73391.948708
1886.647630,30052.361245,9770.718434,-70634.004916
1886.650098,1924.535449,2516.700203,-76303.111601
1886.652563,-4441.235652,10658.965565,-77069.207099
1886.655028,-2960.823768,-9918.759623,-75996.673402
1886.657494,9178.553681,7550.100608,-76303.111601
1886.659959,-28868.031738,-3256.906145,-80440.027290
1886.662425,-6661.853478,3701.029710,-75537.016103
1886.664890,11399.171507,2220.617826,-72932.291410
1886.667355,28571.949361,4885.359217,-72625.853210
1886.669821,-7846.182985,-10658.965565,-80440.027290
1886.672286,-37158.338288,4885.359217,-78601.398095
1886.674751,3997.112087,10214.842000,-74924.139704
1886.677217,24574.837274,11695.253884,-73238.729609
1886.679682,14508.036463,-5773.606348,-73851.606007
1886.682148,-4885.359217,4441.235652,-75537.016103
1886.684613,2664.741391,2664.741391,-75383.797003
1886.687078,2960.823768,5773.606348,-76149.892501
1886.689544,14211.954086,-2072.576638,-75537.016103
1886.692009,-4589.276840,4885.359217,-74770.920605
1886.694474,8142.265362,9178.553681,-74617.701505
1886.696940,-6809.894666,8882.471304,-75383.797003
1886.699405,18061.024985,3701.029710,-73391.948708
1886.701871,12731.542202,10955.047942,-72779.072310
1886.704336,5033.400406,5921.647536,-76915.987999
1886.706801,-20133.601622,-4589.276840,-79214.274493
1886.709267,34049.473332,1184.329507,-76149.892501
1886.711732,22502.260637,296.082377,-70327.566716
1886.714197,22058.137072,18949.272115,-70940.443115
1886.716663,-36714.214723,-14063.912898,-81818.999186
1886.719128,5921.647536,4441.235652,-74924.139704
1886.721594,-1184.329507,5329.482782,-76609.549800
1886.724059,-1480.411884,5329.482782,-74311.263306
1886.726524,-22206.178260,-1036.288319,-76609.549800
1886.728990,14211.954086,10066.800811,-73238.729609
1886.731455,1628.453072,6957.935855,-75690.235202
1886.733920,5033.400406,-5181.441594,-77528.864398
1886.736386,-5921.647536,-10658.965565,-76762.768900
1886.738851,5625.565159,11103.089130,-72319.415011
1886.741317,2664.741391,12435.459826,-72166.195912
1886.743782,3552.988522,5773.606348,-74617.701505
1886.746247,-19541.436869,-3552.988522,-79673.931792
1886.748748,-9918.759623,-5625.565159,-77835.302597
1886.751248,-25611.125593,20725.766376,-79827.150892
1886.753748,-8438.347739,22650.301825,-71553.319513
1886.756249,47669.262665,3849.070898,-68642.156621
1886.758749,18061.024985,2664.741391,-72625.853210
1886.761249,-12287.418637,3256.906145,-75383.797003
1886.763750,31532.773129,5625.565159,-73698.386908
1886.766250,5477.523971,-3552.988522,-75843.454302
1886.768750,-19837.519246,6661.853478,-74311.263306
1886.771250,-22354.219448,4441.235652,-76456.330700
1886.773751,-6069.688724,10510.924376,-74770.920605
1886.776251,13175.665768,-8290.306550,-74770.920605
1886.778751,10510.924376,6365.771101,-75537.016103
1886.781252,-20873.807564,5625.565159,-77835.302597
1886.783752,-5329.482782,-1184.329507,-74924.139704
1886.786252,12583.501014,296.082377,-71553.319513
1886.788753,5921.647536,8438.347739,-72779.072310
1886.791253,-27091.537477,4441.235652,-79520.712692
1886.793753,-296.082377,9326.594869,-76609.549800
1886.796254,1332.370696,-5329.482782,-74924.139704
1886.798754,14063.912898,10658.965565,-72012.976812
1886.801254,10362.883188,2812.782580,-72319.415011
1886.803754,-1924.535449,-6661.853478,-77222.426198
1886.806255,-3404.947333,1924.535449,-76762.768900
1886.808755,31532.773129,-148.041188,-73545.167808
1886.811255,-7846.182985,-2072.576638,-77835.302597
1886.813756,3997.112087,-444.123565,-74770.920605
1886.816256,-3404.947333,1924.535449,-74311.263306
1886.818756,-4885.359217,20577.725188,-74311.263306
1886.821257,-10362.883188,3256.906145,-78601.398095
1886.823757,18357.107362,4145.153275,-74770.920605
1886.826257,16728.654289,3404.947333,-72932.291410
1886.828758,10362.883188,5773.606348,-73391.948708
1886.831258,13619.789333,888.247130,-74004.825107
1886.833758,9474.636058,444.123565,-74617.701505
1886.836259,444.123565,-148.041188,-75690.235202
1886.838759,3404.947333,14508.036463,-74617.701505
1886.841259,7846.182985,7846.182985,-73391.948708
1886.843759,40563.285622,-7698.141797,-71400.100414
1886.846260,-32124.937883,-1332.370696,-79061.055394
1886.848786,3108.864956,3256.906145,-76915.987999
1886.851312,-29904.320057,13471.748144,-77988.521696
1886.853838,10658.965565,21762.054695,-68795.375720
1886.856364,67210.699534,-10658.965565,-70021.128517
1886.858890,3849.070898,-1184.329507,-76915.987999
1886.861417,-11991.336260,-4441.235652,-74617.701505
1886.863943,-16728.654289,8586.388927,-74464.482406
1886.866469,30496.484810,-2960.823768,-72472.634111
1886.868995,1776.494261,-1036.288319,-75537.016103
1886.871521,5181.441594,3997.112087,-76303.111601
1886.874047,-4145.153275,12583.501014,-74924.139704
1886.876573,17468.860231,4885.359217,-75077.358804
1886.879099,13619.789333,-6513.812290,-73238.729609
1886.881626,8438.347739,4885.359217,-71706.538613
1886.884152,296.082377,5477.523971,-75077.358804
1886.886678,2072.576638,740.205942,-78141.740796
1886.889204,6217.729913,-8882.471304,-75077.358804
1886.891730,52258.539505,1628.453072,-68182.499322
1886.894256,2220.617826,2516.700203,-71859.757712
1886.896782,-9326.594869,148.041188,-76609.549800
1886.899308,-17912.983796,-296.082377,-77069.207099
1886.901835,14952.160028,13471.748144,-74770.920605
1886.904361,-20133.601622,7105.977043,-77528.864398
1886.906887,-2812.782580,3256.906145,-75996.673402
1886.909413,-3108.864956,6809.894666,-72779.072310
1886.911939,8438.347739,7254.018232,-72472.634111
1886.914465,-1776.494261,-888.247130,-75537.016103
1886.916991,-6069.688724,-4145.153275,-77375.645298
1886.919518,11695.253884,23242.466579,-73851.606007
1886.922044,-6661.853478,2516.700203,-78141.740796
1886.924570,-17320.819043,-4885.359217,-76149.892501
1886.927096,-6661.853478,-4441.235652,-73545.167808
1886.929622,-1184.329507,16876.695478,-75230.577904
1886.932148,-8290.306550,14508.036463,-77069.207099
1886.934674,-11695.253884,11547.212695,-76149.892501
1886.937200,21614.013506,148.041188,-71706.538613
1886.939727,28275.866984,2516.700203,-70940.443115
1886.942253,1480.411884,0.000000,-73238.729609
1886.944779,3701.029710,-4885.359217,-76915.987999
1886.947305,-18949.272115,148.041188,-80440.027290
1886.949850,-17912.983796,5773.606348,-77069.207099
1886.952395,2664.741391,9474.636058,-74464.482406
1886.954939,-3997.112087,11251.130318,-73391.948708
1886.957484,-1628.453072,-9326.594869,-74924.139704
1886.960029,9474.636058,-1332.370696,-73238.729609
1886.962574,4441.235652,6069.688724,-75996.673402
1886.965119,-7994.224174,1036.288319,-78294.959896
1886.967664,1184.329507,-5921.647536,-74770.920605
1886.970208,11251.130318,5477.523971,-70480.785816
1886.972753,-7105.977043,12139.377449,-74311.263306
1886.975298,-8882.471304,7550.100608,-76762.768900
1886.977843,-8734.430116,-10658.965565,-77682.083497
1886.980388,23982.672521,8586.388927,-71859.757712
1886.982933,-4589.276840,6809.894666,-75230.577904
1886.985477,-1480.411884,-8290.306550,-75383.797003
1886.988022,-11399.171507,0.000000,-76762.768900
1886.990567,33013.185013,4441.235652,-72166.195912
1886.993112,1924.535449,1628.453072,-76915.987999
1886.995657,6513.812290,296.082377,-76609.549800
1886.998202,-4145.153275,4441.235652,-75077.358804
1887.000746,296.082377,19097.313304,-72779.072310
1887.003291,-8734.430116,1480.411884,-76149.892501
1887.005836,22946.384202,2516.700203,-72779.072310
1887.008381,13027.624579,4737.318029,-75077.358804
1887.010926,1332.370696,5329.482782,-77222.426198
1887.013471,10510.924376,-4293.194464,-74004.825107
1887.016015,11103.089130,1480.411884,-72779.072310
1887.018560,10214.842000,5773.606348,-73851.606007
1887.021105,-13915.871710,10510.924376,-77682.083497
1887.023650,-22502.260637,13471.748144,-79061.055394
1887.026195,33901.432144,13619.789333,-69714.690318
1887.028739,35677.926404,4145.153275,-69255.033019
1887.031284,11251.130318,888.247130,-70940.443115
1887.033829,-2664.741391,1332.370696,-72779.072310
1887.036374,26943.496289,-444.123565,-73085.510509
1887.038919,11991.336260,-9326.594869,-77069.207099
1887.041464,-4293.194464,9326.594869,-77528.864398
1887.044008,296.082377,6069.688724,-75537.016103
1887.046553,-1184.329507,9622.677246,-72319.415011
1887.049098,15988.448347,-2516.700203,-74311.263306
1887.051654,3256.906145,5477.523971,-75077.358804
1887.054210,4885.359217,6217.729913,-76303.111601
1887.056765,9030.512492,11695.253884,-76456.330700
1887.059321,-3256.906145,-1480.411884,-76609.549800
1887.061877,3108.864956,4737.318029,-72319.415011
1887.064433,7550.100608,13175.665768,-71093.662214
1887.066989,2960.823768,4885.359217,-76762.768900
1887.069544,-11843.295072,-3997.112087,-78601.398095
1887.072100,51962.457128,-296.082377,-72012.976812
1887.074656,-8290.306550,3256.906145,-74004.825107
1887.077212,3849.070898,9770.718434,-72779.072310
1887.079767,-30644.525999,-5329.482782,-78294.959896
1887.082323,14211.954086,2368.659014,-74464.482406
1887.084879,-18653.189738,9622.677246,-78141.740796
1887.087435,-4441.235652,3997.112087,-76303.111601
1887.089991,-11399.171507,2960.823768,-74311.263306
1887.092546,13915.871710,7254.018232,-71706.538613
1887.095102,-444.123565,-1480.411884,-74617.701505
1887.097658,-740.205942,-1184.329507,-76456.330700
1887.100214,8734.430116,15100.201217,-75077.358804
1887.102770,-1480.411884,3108.864956,-76762.768900
1887.105325,-5329.482782,-1332.370696,-73698.386908
1887.107881,-6069.688724,12435.459826,-72932.291410
1887.110437,4145.153275,10510.924376,-73238.729609
1887.112993,26795.455100,-4293.194464,-74158.044206
1887.115548,7698.141797,-13619.789333,-77835.302597
1887.118104,-29904.320057,-3849.070898,-79673.931792
1887.120660,-17616.901420,4885.359217,-74158.044206
1887.123216,37158.338288,-6957.935855,-72012.976812
1887.125772,-6217.729913,-6365.771101,-78448.178995
1887.128327,-34937.720462,-4885.359217,-79214.274493
1887.130883,-4589.276840,9178.553681,-75843.454302
1887.133439,14656.077652,8882.471304,-71553.319513
1887.135995,-9918.759623,-2812.782580,-75537.016103
1887.138550,-29756.278868,1628.453072,-78294.959896
1887.141106,7994.224174,-3701.029710,-75230.577904
1887.143662,18653.189738,3849.070898,-73698.386908
1887.146218,-1184.329507,888.247130,-76609.549800
1887.148774,-19097.313304,-4589.276840,-77222.426198
1887.151329,6661.853478,-4589.276840,-74004.825107
1887.153893,-11103.089130,19985.560434,-72012.976812
1887.156457,-7846.182985,5625.565159,-78294.959896
1887.159021,-12879.583391,-1036.288319,-77988.521696
1887.161585,17172.777854,-444.123565,-72625.853210
1887.164149,17172.777854,-5181.441594,-72472.634111
1887.166713,-10362.883188,-1332.370696,-75996.673402
1887.169277,21614.013506,3404.947333,-72625.853210
1887.171841,3849.070898,3997.112087,-76456.330700
1887.174405,1628.453072,6513.812290,-77069.207099
1887.176969,6809.894666,-11251.130318,-75996.673402
1887.179533,-7846.182985,18209.066173,-73545.167808
1887.182097,-11843.295072,5033.400406,-77682.083497
1887.184661,-2368.659014,5181.441594,-75690.235202
1887.187225,26499.372724,-7698.141797,-74311.263306
1887.189789,4145.153275,8586.388927,-74158.044206
1887.192353,8882.471304,-5033.400406,-76762.768900
1887.194917,7402.059420,2812.782580,-75077.358804
1887.197481,13619.789333,-4293.194464,-72779.072310
1887.200045,14952.160028,7698.141797,-70787.224015
1887.202609,45448.644839,-3256.906145,-70634.004916
1887.205173,6365.771101,-4441.235652,-75996.673402
1887.207737,-21762.054695,296.082377,-77222.426198
1887.210301,-1480.411884,13915.871710,-70634.004916
1887.212865,58476.269418,740.205942,-67876.061123
1887.215429,9770.718434,-7698.141797,-75996.673402
1887.217993,-16580.613101,7994.224174,-79980.369991
1887.220557,-296.082377,1628.453072,-76915.987999
1887.223121,24426.796086,4589.276840,-72166.195912
1887.225685,4145.153275,-1036.288319,-74464.482406
1887.228249,-4293.194464,6661.853478,-74770.920605
1887.230813,-4145.153275,-7994.224174,-75537.016103
1887.233377,22502.260637,7254.018232,-73698.386908
1887.235947,11251.130318,592.164754,-74004.825107
1887.238518,-10066.800811,-3552.988522,-76915.987999
1887.241088,-16284.530724,-4293.194464,-76762.768900
1887.243658,24722.878463,8142.265362,-70634.004916
1887.246229,13027.624579,5181.441594,-74924.139704
1887.248799,-13323.706956,740.205942,-79061.055394
1887.251370,-5329.482782,-592.164754,-75996.673402
1887.253940,33457.308578,18061.024985,-69714.690318
1887.256511,-17764.942608,-7994.224174,-76149.892501
1887.259081,-2812.782580,4145.153275,-75077.358804
1887.261652,-27239.578666,1480.411884,-78754.617194
1887.264222,296.082377,2516.700203,-75843.454302
1887.266792,-3701.029710,-1332.370696,-77069.207099
1887.269363,14211.954086,6661.853478,-72932.291410
1887.271933,1184.329507,3404.947333,-75383.797003
1887.274504,-3997.112087,-6957.935855,-76149.892501
1887.277074,-2368.659014,13915.871710,-74464.482406
1887.279645,8290.306550,5921.647536,-74311.263306
1887.282215,-12435.459826,-1628.453072,-78754.617194
1887.284786,-9622.677246,-6365.771101,-76303.111601
1887.287356,-13471.748144,4145.153275,-78907.836294
1887.289926,-29608.237680,12731.542202,-78294.959896
1887.292497,-13323.706956,6069.688724,-75077.358804
1887.295067,-7846.182985,2812.782580,-73851.606007
1887.297638,42487.821071,-10955.047942,-72625.853210
1887.300208,-1332.370696,-7994.224174,-78448.178995
1887.302779,-39971.120868,-6513.812290,-79367.493593
1887.305349,-10955.047942,16432.571912,-75537.016103
1887.307919,12583.501014,-592.164754,-72166.195912
1887.310490,20429.683999,-2812.782580,-71246.881314
1887.313060,-15692.365970,7105.977043,-75690.235202
1887.315631,-14508.036463,3108.864956,-78294.959896
1887.318201,15100.201217,-3404.947333,-74158.044206
1887.320772,17764.942608,-1628.453072,-72472.634111
1887.323342,-20577.725188,8290.306550,-75690.235202
1887.325913,-7846.182985,9326.594869,-75383.797003
1887.328483,-14656.077652,-592.164754,-77069.207099
1887.331053,23982.672521,3849.070898,-72319.415011
1887.333624,-4145.153275,-1184.329507,-76609.549800
1887.336194,-9918.759623,6513.812290,-76915.987999
1887.338767,10658.965565,10362.883188,-72012.976812
1887.341339,25759.166782,7698.141797,-72472.634111
1887.343912,5033.400406,4293.194464,-75077.358804
1887.346485,12435.459826,6365.771101,-74924.139704
1887.349057,444.123565,5329.482782,-75843.454302
1887.351630,8586.388927,-18209.066173,-74924.139704
1887.354202,-5921.647536,1480.411884,-72625.853210
1887.356775,-3404.947333,2220.617826,-71400.100414
1887.359347,-3108.864956,5773.606348,-77528.864398
1887.361920,16136.489536,1036.288319,-75537.016103
1887.364493,15692.365970,-148.041188,-73238.729609
1887.367065,11251.130318,11251.130318,-73238.729609
1887.369638,-1480.411884,3108.864956,-74311.263306
1887.372210,14063.912898,1184.329507,-72319.415011
1887.374783,40415.244433,-12435.459826,-73851.606007
1887.377355,-14508.036463,-2516.700203,-79827.150892
1887.379928,-32569.061448,7402.059420,-79214.274493
1887.382501,13175.665768,1184.329507,-72625.853210
1887.385073,19393.395680,-6661.853478,-72779.072310
1887.387646,4145.153275,-6957.935855,-76609.549800
1887.390218,-13323.706956,5921.647536,-80286.808190
1887.392791,3701.029710,6217.729913,-77375.645298
1887.395363,23242.466579,1480.411884,-74617.701505
1887.397936,5477.523971,1776.494261,-73545.167808
1887.400509,3404.947333,10807.006753,-72319.415011
1887.403081,4589.276840,9178.553681,-75077.358804
1887.405654,7846.182985,1036.288319,-77069.207099
1887.408226,8586.388927,1628.453072,-75996.673402
1887.410799,10955.047942,16136.489536,-72932.291410
1887.413371,-5033.400406,444.123565,-76456.330700
1887.415944,1184.329507,-6513.812290,-73238.729609
1887.418517,32865.143825,3404.947333,-72472.634111
1887.421089,-5329.482782,5625.565159,-75383.797003
1887.423662,-14359.995275,5181.441594,-79061.055394
1887.426234,-3997.112087,3849.070898,-76303.111601
1887.428807,6957.935855,10510.924376,-73085.510509
1887.431379,-16728.654289,4441.235652,-74770.920605
1887.433952,-3256.906145,296.082377,-75843.454302
1887.436524,2960.823768,3997.112087,-74311.263306
1887.439097,2072.576638,3404.947333,-76456.330700
1887.441672,-296.082377,4589.276840,-75077.358804
1887.444246,6069.688724,6069.688724,-74004.825107
1887.446821,-3849.070898,-5477.523971,-74924.139704
1887.449395,-19097.313304,7698.141797,-76303.111601
1887.451970,-4737.318029,15100.201217,-76303.111601
1887.454544,6809.894666,148.041188,-74770.920605
1887.457119,15840.407159,-11843.295072,-77069.207099
1887.459693,-17172.777854,-14656.077652,-79367.493593
1887.462268,-40563.285622,9474.636058,-79214.274493
1887.464842,-8586.388927,11695.253884,-74770.920605
1887.467417,3404.947333,8586.388927,-73698.386908
1887.469991,3849.070898,6365.771101,-72625.853210
1887.472566,11547.212695,12879.583391,-74770.920605
1887.475140,-4737.318029,-10510.924376,-75690.235202
1887.477715,-12287.418637,7846.182985,-77835.302597
1887.480289,-34937.720462,5625.565159,-77375.645298
1887.482864,-3256.906145,592.164754,-75690.235202
1887.485438,9030.512492,7254.018232,-74004.825107
1887.488013,14952.160028,7254.018232,-75077.358804
1887.490587,-19541.436869,-2516.700203,-78907.836294
1887.493162,-148.041188,6365.771101,-74158.044206
1887.495736,-1184.329507,13767.830521,-71706.538613
1887.498311,-3108.864956,5181.441594,-76609.549800
1887.500885,-5921.647536,-3701.029710,-77528.864398
1887.503460,9770.718434,8586.388927,-75077.358804
1887.506034,-740.205942,-4441.235652,-75996.673402
1887.508609,-888.247130,8882.471304,-74464.482406
1887.511183,26203.290347,-740.205942,-73851.606007
1887.513758,2516.700203,-3701.029710,-77375.645298
1887.516332,8734.430116,-296.082377,-76762.768900
1887.518907,1036.288319,8142.265362,-75383.797003
1887.521481,-740.205942,18209.066173,-73851.606007
1887.524056,-3849.070898,-2664.741391,-74770.920605
1887.526630,20577.725188,1776.494261,-71706.538613
1887.529205,4885.359217,5773.606348,-75690.235202
1887.531779,10510.924376,8734.430116,-75996.673402
1887.534354,17172.777854,-4441.235652,-74464.482406
1887.536928,17172.777854,5773.606348,-70327.566716
1887.539503,2664.741391,3701.029710,-74617.701505
1887.542077,10955.047942,-6809.894666,-75996.673402
1887.544653,6069.688724,-9474.636058,-79367.493593
1887.547229,-40563.285622,13175.665768,-78601.398095
1887.549805,41303.491564,-1036.288319,-72625.853210
1887.552381,-15988.448347,12435.459826,-74311.263306
1887.554957,-15988.448347,5477.523971,-75843.454302
1887.557533,20873.807564,3701.029710,-73545.167808
1887.560109,15248.242405,1776.494261,-78141.740796
1887.562685,7254.018232,1332.370696,-77069.207099
1887.565261,14063.912898,3849.070898,-72779.072310
1887.567837,3256.906145,2516.700203,-71706.538613
1887.570413,10066.800811,6365.771101,-73391.948708
1887.572989,-12435.459826,5181.441594,-76915.987999
1887.575565,-3256.906145,-3849.070898,-79214.274493
1887.578141,-148.041188,1332.370696,-77375.645298
1887.580717,10658.965565,15248.242405,-73085.510509
1887.583293,-12879.583391,-1480.411884,-76149.892501
1887.585869,30200.402434,-6217.729913,-71246.881314
1887.588445,3108.864956,-1036.288319,-73391.948708
1887.591021,7550.100608,11695.253884,-74617.701505
1887.593597,-17616.901420,-3701.029710,-79367.493593
1887.596173,6217.729913,8438.347739,-75230.577904
1887.598749,-22650.301825,8586.388927,-75077.358804
1887.601325,148.041188,8586.388927,-72472.634111
1887.603901,-2072.576638,3701.029710,-73698.386908
1887.606477,8586.388927,5625.565159,-75230.577904
1887.609053,-3552.988522,-148.041188,-77222.426198
1887.611629,6809.894666,6217.729913,-74311.263306
1887.614205,-1332.370696,-7550.100608,-74924.139704
1887.616780,-8438.347739,17320.819043,-72319.415011
1887.619356,8734.430116,-3701.029710,-72625.853210
1887.621932,7105.977043,-3701.029710,-76762.768900
1887.624508,-15248.242405,-12287.418637,-83197.971083
1887.627084,-69431.317360,15544.324782,-83197.971083
1887.629660,-4145.153275,18209.066173,-68182.499322
1887.632236,102444.502373,-13027.624579,-62973.049936
1887.634812,7105.977043,-25463.084405,-76609.549800
1887.637388,3404.947333,-17764.942608,-77375.645298
1887.639964,-55959.569215,-2812.782580,-85036.600278
1887.642540,-14508.036463,16136.489536,-74924.139704
1887.645116,29460.196492,9178.553681,-69561.471218
1887.647691,-7994.224174,1480.411884,-74158.044206
1887.650267,-30644.525999,1628.453072,-80133.589091
1887.652842,8882.471304,7698.141797,-74311.263306
1887.655418,25018.960840,1036.288319,-73085.510509
1887.657993,-1184.329507,888.247130,-75690.235202
1887.660569,-26351.331535,11695.253884,-75996.673402
1887.663144,-6069.688724,10214.842000,-74924.139704
1887.665720,17764.942608,-1036.288319,-73238.729609
1887.668295,19245.354492,0.000000,-72779.072310
1887.670871,16284.530724,-5181.441594,-75230.577904
1887.673446,-16284.530724,-2516.700203,-77222.426198
1887.676022,24278.754898,2664.741391,-71400.100414
1887.678598,13471.748144,2368.659014,-73851.606007
1887.681173,13323.706956,-444.123565,-76303.111601
1887.683749,-10658.965565,4589.276840,-77069.207099
1887.686324,4589.276840,15100.201217,-74617.701505
1887.688900,-9030.512492,-592.164754,-76609.549800
1887.691475,17616.901420,1332.370696,-72472.634111
1887.694051,-3256.906145,5921.647536,-75996.673402
1887.696626,21762.054695,4145.153275,-73851.606007
1887.699202,12287.418637,-10362.883188,-75230.577904
1887.701778,21169.889941,5033.400406,-71400.100414
1887.704353,18209.066173,-7402.059420,-71093.662214
1887.706929,28423.908173,-6217.729913,-75230.577904
1887.709504,-33013.185013,-6957.935855,-82431.875585
1887.712080,-19985.560434,6069.688724,-80593.246390
1887.714655,-9326.594869,5033.400406,-79214.274493
1887.717231,-26203.290347,12287.418637,-76609.549800
1887.719806,23242.466579,-2072.576638,-71553.319513
1887.722382,12879.583391,-1924.535449,-75077.358804
1887.724958,22502.260637,-7254.018232,-74617.701505
1887.727533,5181.441594,4293.194464,-76303.111601
1887.730109,1036.288319,-5033.400406,-74158.044206
1887.732684,8438.347739,1184.329507,-72472.634111
1887.735260,-7698.141797,296.082377,-76149.892501
1887.737835,-12139.377449,-2960.823768,-79673.931792
1887.740411,592.164754,4441.235652,-76456.330700
1887.742986,14508.036463,9622.677246,-74311.263306
1887.745562,-7105.977043,2368.659014,-76303.111601
1887.748138,34641.638086,-5033.400406,-71859.757712
1887.750713,-740.205942,-3701.029710,-72625.853210
1887.753288,-148.041188,3701.029710,-74770.920605
1887.755863,-14359.995275,6513.812290,-78141.740796
1887.758439,2220.617826,6513.812290,-77528.864398
1887.761014,-20725.766376,9474.636058,-77528.864398
1887.763589,1332.370696,888.247130,-73698.386908
1887.766164,-5477.523971,6809.894666,-72932.291410
1887.768740,8586.388927,8734.430116,-73545.167808
1887.771315,-4145.153275,1776.494261,-77528.864398
1887.773890,11251.130318,3404.947333,-76149.892501
1887.776466,-4589.276840,-1036.288319,-74924.139704
1887.779041,7402.059420,2516.700203,-72166.195912
1887.781616,-27979.784608,4885.359217,-78141.740796
1887.784191,-40563.285622,8586.388927,-81665.780087
1887.786767,-35085.761651,17172.777854,-79827.150892
1887.789342,17912.983796,16432.571912,-72625.853210
1887.791917,18357.107362,3108.864956,-70021.128517
1887.794492,63509.669824,-11695.253884,-66190.651027
1887.797068,6661.853478,-23834.631332,-76149.892501
1887.799643,-58180.187041,-3256.906145,-84117.285680
1887.802218,-30496.484810,13915.871710,-79214.274493
1887.804794,21021.848753,6069.688724,-72625.853210
1887.807369,4145.153275,1332.370696,-73698.386908
1887.809944,-29164.114115,3108.864956,-77222.426198
1887.812519,592.164754,4885.359217,-71553.319513
1887.815095,30348.443622,-1776.494261,-70634.004916
1887.817670,2664.741391,-888.247130,-75537.016103
1887.820245,-9030.512492,8142.265362,-77835.302597
1887.822821,-6069.688724,5773.606348,-77682.083497
1887.825396,7105.977043,0.000000,-73545.167808
1887.827971,5033.400406,5477.523971,-73545.167808
1887.830546,-8142.265362,-7550.100608,-77375.645298
1887.833122,-11843.295072,740.205942,-77375.645298
1887.835697,33309.267390,1628.453072,-74464.482406
1887.838272,3849.070898,-888.247130,-76149.892501
1887.840847,12731.542202,3404.947333,-73851.606007
1887.843423,-4293.194464,6217.729913,-73545.167808
1887.845998,14359.995275,-5033.400406,-73698.386908
1887.848573,-9770.718434,-5329.482782,-75690.235202
1887.851149,5329.482782,1480.411884,-76762.768900
1887.853722,1480.411884,-2072.576638,-76456.330700
1887.856296,5773.606348,4293.194464,-74924.139704
1887.858869,7698.141797,-2368.659014,-75077.358804
1887.861443,19393.395680,3997.112087,-71400.100414
1887.864016,-10658.965565,2220.617826,-79827.150892
1887.866590,-39378.956114,10658.965565,-79980.369991
1887.869164,7698.141797,3849.070898,-76456.330700
1887.871737,20725.766376,3552.988522,-74617.701505
1887.874311,1628.453072,6957.935855,-72472.634111
1887.876884,17912.983796,8438.347739,-68335.718422
1887.879458,26499.372724,-2368.659014,-73085.510509
1887.882032,11547.212695,3701.029710,-74464.482406
1887.884605,3997.112087,7254.018232,-77375.645298
1887.887179,5773.606348,11251.130318,-75537.016103
1887.889752,9178.553681,15396.283594,-75383.797003
1887.892326,-3256.906145,4441.235652,-74311.263306
1887.894899,4589.276840,7994.224174,-71859.757712
1887.897473,14952.160028,12435.459826,-73698.386908
1887.900047,1184.329507,2960.823768,-77069.207099
1887.902620,4293.194464,-2664.741391,-75537.016103
1887.905194,25611.125593,4885.359217,-73698.386908
1887.907767,-14804.118840,9178.553681,-74924.139704
1887.910341,-8290.306550,2960.823768,-74158.044206
1887.912915,9918.759623,13619.789333,-72472.634111
1887.915488,1332.370696,4737.318029,-77682.083497
1887.918062,-11251.130318,1776.494261,-77222.426198
1887.920635,-2812.782580,0.000000,-73698.386908
1887.923209,5033.400406,4737.318029,-71706.538613
1887.925783,-2812.782580,-1628.453072,-74617.701505
1887.928356,1628.453072,3108.864956,-74004.825107
1887.930930,3849.070898,7994.224174,-76762.768900
1887.933503,5625.565159,5477.523971,-76456.330700
1887.936077,-17320.819043,-1924.535449,-77682.083497
1887.938650,5625.565159,1184.329507,-71093.662214
1887.941224,-2960.823768,11103.089130,-72319.415011
1887.943798,30200.402434,-2960.823768,-74770.920605
1887.946371,-26647.413912,-7402.059420,-84117.285680
1887.948945,-46781.015534,-3256.906145,-82278.656485
1887.951518,-52702.663070,7698.141797,-79214.274493
1887.954092,18949.272115,15396.283594,-68335.718422
1887.956664,38046.585419,17764.942608,-68182.499322
1887.959237,-5921.647536,-17320.819043,-77222.426198
1887.961809,-30940.608376,-2072.576638,-79827.150892
1887.964382,296.082377,6661.853478,-74617.701505
1887.966954,16728.654289,4737.318029,-72625.853210
1887.969526,-7105.977043,-3108.864956,-76762.768900
1887.972099,-17468.860231,7698.141797,-75690.235202
1887.974671,10807.006753,5921.647536,-74158.044206
1887.977244,-740.205942,12583.501014,-75077.358804
1887.979816,8882.471304,592.164754,-75690.235202
1887.982388,-20429.683999,-6661.853478,-79367.493593
1887.984961,1628.453072,2368.659014,-72472.634111
1887.987533,25611.125593,-444.123565,-71553.319513
1887.990106,-2516.700203,6069.688724,-76915.987999
1887.992678,17764.942608,-2368.659014,-76149.892501
1887.995250,9474.636058,-3108.864956,-76303.111601
1887.997823,18505.148550,3997.112087,-74158.044206
1888.000395,-6365.771101,8586.388927,-74158.044206
1888.002968,1628.453072,8882.471304,-73698.386908
1888.005540,-4145.153275,-5477.523971,-75077.358804
1888.008112,21317.931130,-592.164754,-74004.825107
1888.010685,10214.842000,2812.782580,-75383.797003
1888.013257,6365.771101,11103.089130,-75230.577904
1888.015830,7994.224174,-10214.842000,-73238.729609
1888.018402,33013.185013,-3552.988522,-68335.718422
1888.020974,14063.912898,-11547.212695,-75843.454302
1888.023547,-42783.903448,8290.306550,-82431.875585
1888.026119,-27387.619854,9178.553681,-82585.094684
1888.028692,-13471.748144,19985.560434,-76456.330700
1888.031264,41451.532752,8734.430116,-66190.651027
1888.033836,36862.255912,1036.288319,-69255.033019
1888.036409,3997.112087,-296.082377,-73545.167808
1888.038981,7994.224174,592.164754,-76609.549800
1888.041554,9178.553681,1628.453072,-75077.358804
1888.044126,29608.237680,11991.336260,-74158.044206
1888.046698,-14656.077652,6365.771101,-76149.892501
1888.049271,-13175.665768,5033.400406,-73698.386908
1888.051843,13323.706956,18061.024985,-71400.100414
1888.054416,16432.571912,2368.659014,-75843.454302
1888.056988,-3701.029710,-6217.729913,-77988.521696
1888.059560,27535.661042,-1332.370696,-76149.892501
1888.062131,-16728.654289,15100.201217,-74617.701505
1888.064703,8290.306550,2516.700203,-72625.853210
1888.067275,-4589.276840,9030.512492,-72779.072310
1888.069846,-18061.024985,-7105.977043,-78907.836294
1888.072418,-17024.736666,2072.576638,-78907.836294
1888.074990,8734.430116,2516.700203,-74004.825107
1888.077561,2368.659014,-1036.288319,-72319.415011
1888.080133,-1480.411884,-1776.494261,-72779.072310
1888.082705,-1036.288319,1924.535449,-73085.510509
1888.085276,11843.295072,6809.894666,-75230.577904
1888.087848,-296.082377,8734.430116,-77682.083497
1888.090419,-8142.265362,0.000000,-77069.207099
1888.092991,6365.771101,-1332.370696,-71093.662214
1888.095563,3701.029710,2220.617826,-71246.881314
1888.098134,5033.400406,-2812.782580,-75537.016103
1888.100706,-13027.624579,-148.041188,-80440.027290
1888.103278,-13027.624579,2812.782580,-76456.330700
1888.105849,18505.148550,2960.823768,-73085.510509
1888.108421,9474.636058,1628.453072,-71706.538613
1888.110993,-21614.013506,9030.512492,-76456.330700
1888.113564,-28868.031738,7254.018232,-78448.178995
1888.116136,13471.748144,5477.523971,-75843.454302
1888.118708,7698.141797,3552.988522,-75077.358804
1888.121279,-10955.047942,740.205942,-77528.864398
1888.123851,-7698.141797,2220.617826,-72625.853210
1888.126423,15100.201217,8438.347739,-72012.976812
1888.128994,4589.276840,16284.530724,-74464.482406
1888.131566,-16876.695478,-5625.565159,-80286.808190
1888.134137,-6661.853478,444.123565,-78448.178995
1888.136709,6661.853478,4589.276840,-74004.825107
1888.139281,-888.247130,-8142.265362,-73545.167808
1888.141852,-11547.212695,3701.029710,-74004.825107
1888.144424,30496.484810,-2220.617826,-74311.263306
1888.146996,1628.453072,-1924.535449,-78754.617194
1888.149567,12879.583391,-444.123565,-76303.111601
1888.152139,-1184.329507,6217.729913,-73391.948708
1888.154711,17024.736666,-7402.059420,-71859.757712
1888.157282,-14359.995275,3849.070898,-74770.920605
1888.159854,-3997.112087,3552.988522,-77528.864398
1888.162369,-10510.924376,4145.153275,-79061.055394
1888.164885,11695.253884,5329.482782,-76303.111601
1888.167401,19393.395680,-7105.977043,-72319.415011
1888.169916,9770.718434,8290.306550,-75230.577904
1888.172432,-48705.550984,148.041188,-81665.780087
1888.174947,-30200.402434,16728.654289,-77528.864398
1888.177463,72392.141128,-11399.171507,-71400.100414
1888.179978,34789.679274,-21169.889941,-76303.111601
1888.182494,-61437.093186,-1332.370696,-84423.723880
1888.185009,-25018.960840,10955.047942,-72779.072310
1888.187525,36862.255912,4589.276840,-70787.224015
1888.190040,21169.889941,444.123565,-73698.386908
1888.192556,-7550.100608,-7550.100608,-77988.521696
1888.195071,13175.665768,2220.617826,-77222.426198
1888.197587,-740.205942,2220.617826,-74158.044206
1888.200103,4441.235652,-6809.894666,-73391.948708
1888.202618,-9030.512492,-6069.688724,-75537.016103
1888.205134,2960.823768,8142.265362,-75843.454302
1888.207649,-9622.677246,10362.883188,-79520.712692
1888.210165,49149.674549,888.247130,-72166.195912
1888.212680,3701.029710,-3404.947333,-73085.510509
1888.215196,-9326.594869,3552.988522,-73391.948708
1888.217711,-13619.789333,4293.194464,-74464.482406
1888.220227,8290.306550,12731.542202,-75077.358804
1888.222742,-19541.436869,2664.741391,-79827.150892
1888.225258,-5625.565159,3701.029710,-77682.083497
1888.227773,-10807.006753,3404.947333,-73698.386908
1888.230289,10214.842000,6365.771101,-71093.662214
1888.232804,1776.494261,740.205942,-73391.948708
1888.235320,11399.171507,296.082377,-77069.207099
1888.237836,-4293.194464,7846.182985,-77528.864398
1888.240351,-1776.494261,14656.077652,-77375.645298
1888.242867,-23538.548956,2368.659014,-78448.178995
1888.245382,-46040.809592,22502.260637,-77222.426198
1888.247898,4441.235652,8290.306550,-73545.167808
1888.250413,43820.191766,-2368.659014,-69867.909418
1888.252929,26647.413912,-21317.931130,-74924.139704
1888.255444,-27387.619854,-740.205942,-72012.976812
1888.257960,-17468.860231,-3997.112087,-76149.892501
1888.260475,-23834.631332,4885.359217,-76149.892501
1888.263004,11843.295072,1332.370696,-73545.167808
1888.265532,2220.617826,4293.194464,-77069.207099
1888.268061,-17764.942608,12731.542202,-78294.959896
1888.270589,-9622.677246,4737.318029,-75230.577904
1888.273118,20577.725188,4441.235652,-70787.224015
1888.275646,6661.853478,7550.100608,-72166.195912
1888.278175,-13619.789333,3701.029710,-78448.178995
1888.280703,6069.688724,2960.823768,-76303.111601
1888.283231,15248.242405,5033.400406,-73391.948708
1888.285760,20133.601622,-11843.295072,-73545.167808
1888.288288,-19837.519246,6365.771101,-75690.235202
1888.290817,17024.736666,1480.411884,-74617.701505
1888.293345,13027.624579,-2516.700203,-76149.892501
1888.295874,20873.807564,-2664.741391,-75996.673402
1888.298402,-9030.512492,3404.947333,-76303.111601
1888.300931,12435.459826,-4293.194464,-72625.853210
1888.303459,-5329.482782,2368.659014,-74464.482406
1888.305987,-1776.494261,2960.823768,-75996.673402
1888.308516,-10658.965565,1924.535449,-77375.645298
1888.311044,15396.283594,4589.276840,-74770.920605
1888.313573,14952.160028,-740.205942,-73698.386908
1888.316101,-2072.576638,8290.306550,-77528.864398
1888.318630,-46781.015534,2220.617826,-81206.122788
1888.321158,-23538.548956,7698.141797,-77222.426198
1888.323687,8438.347739,-2072.576638,-79214.274493
1888.326215,-4737.318029,8882.471304,-76149.892501
1888.328743,22502.260637,-2812.782580,-73545.167808
1888.331272,20429.683999,2220.617826,-71093.662214
1888.333800,14952.160028,-5329.482782,-72932.291410
1888.336329,-3552.988522,9178.553681,-72472.634111
1888.338857,19985.560434,13027.624579,-76456.330700
1888.341386,-3256.906145,8290.306550,-79980.369991
1888.343914,0.000000,1036.288319,-76149.892501
1888.346443,5329.482782,6513.812290,-72472.634111
1888.348971,15544.324782,7550.100608,-71706.538613
1888.351499,-3256.906145,-5773.606348,-74924.139704
1888.354028,39378.956114,-3997.112087,-75690.235202
1888.356556,-27683.702231,1628.453072,-80899.684589
1888.359085,-1184.329507,5181.441594,-75383.797003
1888.361613,10066.800811,9326.594869,-71553.319513
1888.364152,-12731.542202,2812.782580,-75230.577904
1888.366691,-17616.901420,-592.164754,-77835.302597
1888.369230,592.164754,296.082377,-75230.577904
1888.371769,13767.830521,-1332.370696,-74158.044206
1888.374309,-8438.347739,-1776.494261,-76609.549800
1888.376848,-5477.523971,2516.700203,-74617.701505
1888.379387,2220.617826,4293.194464,-74617.701505
1888.381926,2516.700203,9622.677246,-74464.482406
1888.384465,740.205942,9030.512492,-77375.645298
1888.387004,-15248.242405,17320.819043,-74924.139704
1888.389543,-7550.100608,11843.295072,-74770.920605
1888.392082,15544.324782,5921.647536,-72625.853210
1888.394621,19393.395680,5773.606348,-71553.319513
1888.397160,18949.272115,-4589.276840,-71400.100414
1888.399699,14656.077652,-9030.512492,-73545.167808
1888.402238,-15396.283594,2368.659014,-77375.645298
1888.404777,-20281.642811,-740.205942,-77069.207099
1888.407316,-4441.235652,6217.729913,-77988.521696
1888.409855,12139.377449,2812.782580,-73391.948708
1888.412394,6217.729913,4885.359217,-73391.948708
1888.414934,-18357.107362,4589.276840,-76303.111601
1888.417473,1332.370696,-10955.047942,-75383.797003
1888.420012,-888.247130,8438.347739,-73391.948708
1888.422551,5921.647536,5329.482782,-76456.330700
1888.425090,-22502.260637,-740.205942,-79520.712692
1888.427629,4145.153275,2960.823768,-73698.386908
1888.430168,24278.754898,-4885.359217,-71553.319513
1888.432707,-16728.654289,3701.029710,-75537.016103
1888.435246,18505.148550,1480.411884,-74311.263306
1888.437785,11399.171507,-1628.453072,-76456.330700
1888.440324,17616.901420,1184.329507,-74770.920605
1888.442863,-888.247130,-1776.494261,-75077.358804
1888.445409,2368.659014,6957.935855,-72779.072310
1888.447955,1776.494261,-2516.700203,-74004.825107
1888.450502,9326.594869,6661.853478,-75230.577904
1888.453048,-6661.853478,-2664.741391,-80593.246390
1888.455594,11843.295072,2072.576638,-74464.482406
1888.458140,19689.478057,2220.617826,-71246.881314
1888.460686,39230.914926,12435.459826,-68182.499322
1888.463232,3552.988522,-592.164754,-75230.577904
1888.465778,-22058.137072,5477.523971,-77835.302597
1888.468325,16876.695478,-444.123565,-76149.892501
1888.470871,14656.077652,5181.441594,-74311.263306
1888.473417,16876.695478,6365.771101,-74464.482406
1888.475963,8734.430116,1036.288319,-72779.072310
1888.478509,592.164754,-444.123565,-72319.415011
1888.481055,15840.407159,13027.624579,-74770.920605
1888.483601,7402.059420,2960.823768,-78907.836294
1888.486147,2664.741391,-4737.318029,-76456.330700
1888.488694,3256.906145,11991.336260,-72319.415011
1888.491240,-7994.224174,6365.771101,-74158.044206
1888.493786,-444.123565,2516.700203,-74311.263306
1888.496332,10807.006753,-2368.659014,-78141.740796
1888.498878,-10510.924376,11843.295072,-77375.645298
1888.501424,5625.565159,2368.659014,-75537.016103
1888.503970,9030.512492,7698.141797,-71859.757712
1888.506516,-12139.377449,-4737.318029,-74617.701505
1888.509063,-16284.530724,-592.164754,-75843.454302
1888.511609,-2220.617826,2368.659014,-75996.673402
1888.514155,0.000000,-2960.823768,-76456.330700
1888.516701,-7105.977043,-2368.659014,-75690.235202
1888.519247,2960.823768,2072.576638,-73698.386908
1888.521793,5625.565159,9326.594869,-73238.729609
1888.524339,9770.718434,3997.112087,-74158.044206
1888.526886,444.123565,1332.370696,-75843.454302
1888.529432,-2664.741391,13175.665768,-72932.291410
1888.531978,-15692.365970,21762.054695,-73851.606007
1888.534524,25167.002028,8734.430116,-72472.634111
1888.537070,8290.306550,7402.059420,-73851.606007
1888.539616,-29312.155303,13323.706956,-75996.673402
1888.542162,17468.860231,9030.512492,-72012.976812
1888.544708,14359.995275,592.164754,-72932.291410
1888.547260,-10955.047942,-1332.370696,-77682.083497
1888.549812,-30792.567187,10510.924376,-79214.274493
1888.552364,7254.018232,6661.853478,-75077.358804
1888.554916,6661.853478,3849.070898,-73698.386908
1888.557469,-7698.141797,2664.741391,-75230.577904
1888.560021,-2664.741391,592.164754,-75230.577904
1888.562573,-2664.741391,148.041188,-76762.768900
1888.565125,25167.002028,1924.535449,-72319.415011
1888.567677,6957.935855,3849.070898,-74617.701505
1888.570229,-15840.407159,3108.864956,-78141.740796
1888.572781,-6957.935855,10807.006753,-75537.016103
1888.575333,15840.407159,3849.070898,-73851.606007
1888.577885,11695.253884,3997.112087,-74158.044206
1888.580437,12435.459826,4441.235652,-75690.235202
1888.582989,2072.576638,7550.100608,-75843.454302
1888.585541,6217.729913,-1332.370696,-75690.235202
1888.588093,-5625.565159,9770.718434,-74158.044206
1888.590645,3849.070898,-1332.370696,-75230.577904
1888.593197,4441.235652,3997.112087,-74158.044206
1888.595749,15544.324782,3997.112087,-74004.825107
1888.598301,10066.800811,1628.453072,-75077.358804
1888.600853,23834.631332,-13471.748144,-74924.139704
1888.603405,-17912.983796,-444.123565,-76762.768900
1888.605957,-26647.413912,7994.224174,-76915.987999
1888.608509,34197.514520,-148.041188,-73698.386908
1888.611061,7550.100608,-6957.935855,-79673.931792
1888.613613,-13323.706956,-2516.700203,-77682.083497
1888.616165,5033.400406,592.164754,-74924.139704
1888.618717,22650.301825,-2220.617826,-70634.004916
1888.621269,21762.054695,11991.336260,-71553.319513
1888.623821,-592.164754,6217.729913,-77069.207099
1888.626373,-8438.347739,-1924.535449,-79367.493593
1888.628925,6217.729913,4885.359217,-74004.825107
1888.631477,7402.059420,7698.141797,-72779.072310
1888.634029,-3849.070898,-740.205942,-74464.482406
1888.636581,10955.047942,-6365.771101,-76915.987999
1888.639133,-16876.695478,8734.430116,-78141.740796
1888.641685,11103.089130,6217.729913,-73545.167808
1888.644237,18505.148550,10362.883188,-71400.100414
1888.646789,-18505.148550,-10066.800811,-76762.768900
1888.649346,-9326.594869,3256.906145,-74770.920605
1888.651903,-11991.336260,1628.453072,-76456.330700
1888.654460,3256.906145,148.041188,-74311.263306
1888.657018,-1184.329507,-2960.823768,-75690.235202
1888.659575,-5773.606348,2220.617826,-75383.797003
1888.662132,2960.823768,5329.482782,-74617.701505
1888.664689,6957.935855,9178.553681,-74464.482406
1888.667247,-2812.782580,-3552.988522,-76609.549800
1888.669804,-32272.979071,7846.182985,-80440.027290
1888.672361,-33605.349767,17024.736666,-76609.549800
1888.674918,25907.207970,5181.441594,-72472.634111
1888.677475,29608.237680,-3997.112087,-75537.016103
1888.680033,-45300.603650,6513.812290,-78907.836294
1888.682590,-15544.324782,15544.324782,-74770.920605
1888.685147,18357.107362,8438.347739,-75230.577904
1888.687704,23242.466579,3552.988522,-71859.757712
1888.690261,-12287.418637,-1480.411884,-78448.178995
1888.692819,-21465.972318,7550.100608,-78601.398095
1888.695376,-3997.112087,2368.659014,-73851.606007
1888.697933,22354.219448,-9474.636058,-71706.538613
1888.700490,-22798.343014,4737.318029,-75537.016103
1888.703047,-6957.935855,3701.029710,-78141.740796
1888.705605,-1332.370696,-444.123565,-77069.207099
1888.708162,20429.683999,3849.070898,-72932.291410
1888.710719,10066.800811,-10955.047942,-74924.139704
1888.713276,-17468.860231,6957.935855,-75843.454302
1888.715833,10658.965565,6513.812290,-72779.072310
1888.718391,10066.800811,1628.453072,-76303.111601
1888.720948,16876.695478,-1924.535449,-75996.673402
1888.723505,-148.041188,1036.288319,-74770.920605
1888.726062,9474.636058,1184.329507,-72012.976812
1888.728619,-148.041188,3552.988522,-75077.358804
1888.731177,148.041188,4145.153275,-76762.768900
1888.733734,-2516.700203,-3701.029710,-77375.645298
1888.736291,7994.224174,2960.823768,-75537.016103
1888.738848,-11547.212695,7550.100608,-77835.302597
1888.741405,-3701.029710,14656.077652,-73391.948708
1888.743963,13767.830521,-1776.494261,-70940.443115
1888.746520,21021.848753,-4885.359217,-71859.757712
1888.749077,-592.164754,-8290.306550,-80133.589091
1888.751637,-12879.583391,296.082377,-77069.207099
1888.754197,9030.512492,5033.400406,-75537.016103
1888.756757,20725.766376,-9770.718434,-71553.319513
1888.759317,10807.006753,3997.112087,-72472.634111
1888.761877,-3701.029710,6217.729913,-75996.673402
1888.764437,-4589.276840,-2664.741391,-78448.178995
1888.766998,16136.489536,888.247130,-74311.263306
1888.769558,-7994.224174,7402.059420,-75843.454302
1888.772118,-2072.576638,10955.047942,-73391.948708
1888.774678,8734.430116,-4145.153275,-76149.892501
1888.777238,-17024.736666,1036.288319,-77528.864398
1888.779798,-3404.947333,-4145.153275,-76762.768900
1888.782358,3256.906145,12139.377449,-74158.044206
1888.784918,-6069.688724,-5033.400406,-75537.016103
1888.787478,-6365.771101,2220.617826,-75077.358804
1888.790038,-10214.842000,-1036.288319,-75383.797003
1888.792598,-1776.494261,3849.070898,-73085.510509
1888.795158,-3108.864956,0.000000,-75843.454302
1888.797718,1628.453072,3552.988522,-75077.358804
1888.800278,4293.194464,4589.276840,-75996.673402
1888.802838,2664.741391,10510.924376,-75537.016103
1888.805398,1184.329507,-5329.482782,-74617.701505
1888.807958,-3108.864956,-5921.647536,-77375.645298
1888.810518,-17024.736666,-10066.800811,-79061.055394
1888.813079,-30200.402434,1332.370696,-79520.712692
1888.815639,21317.931130,-3256.906145,-73238.729609
1888.818199,18801.230927,-7402.059420,-73085.510509
1888.820759,-20429.683999,2072.576638,-76303.111601
1888.823319,-21317.931130,6365.771101,-75843.454302
1888.825879,8586.388927,5477.523971,-72166.195912
1888.828439,10807.006753,-1924.535449,-75843.454302
1888.830999,-20133.601622,5773.606348,-78601.398095
1888.833559,-14656.077652,6217.729913,-76762.768900
1888.836119,16876.695478,6217.729913,-70021.128517
1888.838679,12139.377449,740.205942,-72472.634111
1888.841239,17468.860231,3997.112087,-73085.510509
1888.843799,-592.164754,6069.688724,-76915.987999
1888.846359,-8142.265362,0.000000,-78141.740796
1888.848919,888.247130,9474.636058,-73698.386908
1888.851479,23834.631332,-148.041188,-73238.729609
1888.854042,-9030.512492,-1332.370696,-76456.330700
1888.856604,5921.647536,2664.741391,-75077.358804
1888.859167,10658.965565,9622.677246,-73851.606007
1888.861729,17172.777854,2072.576638,-76149.892501
1888.864292,-11547.212695,3256.906145,-75843.454302
1888.866855,12583.501014,-592.164754,-70634.004916
1888.869417,14656.077652,7698.141797,-73391.948708
1888.871980,10658.965565,6809.894666,-76609.549800
1888.874542,-15840.407159,2664.741391,-79827.150892
1888.877105,3108.864956,5033.400406,-73698.386908
1888.879667,15396.283594,740.205942,-70021.128517
1888.882230,14359.995275,6661.853478,-74158.044206
1888.884792,-22946.384202,10955.047942,-77682.083497
1888.887355,7550.100608,10214.842000,-76762.768900
1888.889917,20429.683999,3108.864956,-74004.825107
1888.892480,19541.436869,-7994.224174,-74158.044206
1888.895042,4737.318029,8290.306550,-71093.662214
1888.897605,2664.741391,3108.864956,-76149.892501
1888.900167,-13323.706956,1776.494261,-79827.150892
1888.902730,11399.171507,-3997.112087,-76762.768900
1888.905292,-740.205942,5329.482782,-75843.454302
1888.907855,2072.576638,8290.306550,-73085.510509
1888.910418,15692.365970,444.123565,-76149.892501
1888.912980,-27535.661042,1184.329507,-79061.055394
1888.915543,-2368.659014,-1184.329507,-75077.358804
1888.918105,19837.519246,13619.789333,-71246.881314
1888.920668,-7550.100608,-4885.359217,-77835.302597
1888.923230,-12435.459826,-888.247130,-77375.645298
1888.925793,-7846.182985,148.041188,-74924.139704
1888.928355,1184.329507,1924.535449,-73085.510509
1888.930918,-10510.924376,2960.823768,-76609.549800
1888.933480,-7698.141797,2368.659014,-76456.330700
1888.936043,2812.782580,3701.029710,-77528.864398
1888.938605,7254.018232,10510.924376,-74770.920605
1888.941168,-7105.977043,8734.430116,-73851.606007
1888.943730,9770.718434,11251.130318,-68488.937521
1888.946293,31384.731941,1480.411884,-70634.004916
1888.948855,-740.205942,13175.665768,-74004.825107
1888.951418,14359.995275,-444.123565,-75383.797003
1888.953981,1332.370696,-1776.494261,-74617.701505
1888.956545,-9622.677246,2072.576638,-75077.358804
1888.959110,-14359.995275,6217.729913,-74617.701505
1888.961674,-21169.889941,12435.459826,-75843.454302
1888.964239,6365.771101,5477.523971,-76762.768900
1888.966804,1776.494261,4145.153275,-75230.577904
1888.969368,6809.894666,-10214.842000,-75843.454302
1888.971933,-21465.972318,9770.718434,-73545.167808
1888.974497,10807.006753,3701.029710,-73085.510509
1888.977062,-1480.411884,-2516.700203,-76915.987999
1888.979627,4293.194464,2960.823768,-75537.016103
1888.982191,18801.230927,296.082377,-74924.139704
1888.984756,-5329.482782,3849.070898,-76456.330700
1888.987320,22798.343014,5181.441594,-71553.319513
1888.989885,5477.523971,-740.205942,-74924.139704
1888.992450,9918.759623,296.082377,-75077.358804
1888.995014,5921.647536,-5033.400406,-76456.330700
1888.997579,8586.388927,-1776.494261,-74004.825107
1889.000144,6217.729913,4589.276840,-75230.577904
1889.002708,-11399.171507,3997.112087,-78754.617194
1889.005273,-1036.288319,-1184.329507,-75537.016103
1889.007837,4441.235652,8586.388927,-72779.072310
1889.010402,33605.349767,11251.130318,-69101.813920
1889.012967,42043.697506,-12731.542202,-75843.454302
1889.015531,-61437.093186,11399.171507,-81052.903688
1889.018096,11251.130318,6217.729913,-72472.634111
1889.020660,43376.068201,-148.041188,-69561.471218
1889.023225,28423.908173,7698.141797,-72166.195912
1889.025790,17468.860231,-11103.089130,-76149.892501
1889.028354,-6809.894666,740.205942,-74617.701505
1889.030919,19245.354492,-2220.617826,-74004.825107
1889.033484,888.247130,1036.288319,-75537.016103
1889.036048,-2072.576638,-5329.482782,-77222.426198
1889.038613,-3552.988522,11103.089130,-74004.825107
1889.041177,11103.089130,4589.276840,-73851.606007
1889.043742,24722.878463,6661.853478,-74311.263306
1889.046307,-38046.585419,888.247130,-79980.369991
1889.048871,5033.400406,-592.164754,-73391.948708
1889.051436,15840.407159,10807.006753,-72012.976812
1889.054000,-7105.977043,-1332.370696,-75690.235202
1889.056565,-8882.471304,2960.823768,-76609.549800
1889.059130,-4145.153275,2072.576638,-74617.701505
1889.061696,-2072.576638,444.123565,-74770.920605
1889.064261,-5625.565159,-1332.370696,-74617.701505
1889.066826,-148.041188,2812.782580,-73851.606007
1889.069392,10955.047942,9622.677246,-73391.948708
1889.071957,1036.288319,7402.059420,-77375.645298
1889.074523,-16432.571912,-2812.782580,-78754.617194
1889.077088,-33457.308578,17616.901420,-75996.673402
1889.079653,17320.819043,8438.347739,-71246.881314
1889.082219,20281.642811,13027.624579,-70021.128517
1889.084784,42635.862259,5773.606348,-71246.881314
1889.087349,27387.619854,1628.453072,-72932.291410
1889.089915,-11991.336260,888.247130,-74311.263306
1889.092480,-20873.807564,2072.576638,-76762.768900
1889.095045,-7550.100608,7254.018232,-74464.482406
1889.097611,3552.988522,592.164754,-76762.768900
1889.100176,-19541.436869,11991.336260,-78907.836294
1889.102741,1776.494261,11843.295072,-76303.111601
1889.105307,3997.112087,2960.823768,-72932.291410
1889.107872,25611.125593,4885.359217,-71093.662214
1889.110438,-5181.441594,6217.729913,-75843.454302
1889.113003,-10362.883188,5477.523971,-77835.302597
1889.115568,11547.212695,10658.965565,-74311.263306
1889.118134,27535.661042,1776.494261,-75383.797003
1889.120699,-1776.494261,1332.370696,-76149.892501
1889.123264,12583.501014,1628.453072,-73238.729609
1889.125830,2072.576638,6661.853478,-73545.167808
1889.128395,12139.377449,5625.565159,-75537.016103
1889.130960,-3108.864956,1628.453072,-75230.577904
1889.133526,25463.084405,888.247130,-71553.319513
1889.136091,12139.377449,5033.400406,-73085.510509
1889.138656,1628.453072,5477.523971,-76762.768900
1889.141222,26351.331535,-12435.459826,-69714.690318
1889.143787,22946.384202,-8882.471304,-75383.797003
1889.146353,-28868.031738,-8142.265362,-72472.634111
1889.148918,-31088.649564,-11695.253884,-83810.847481
1889.151483,-75056.882519,23242.466579,-86722.010374
1889.154049,10066.800811,296.082377,-75230.577904
1889.156614,21169.889941,-5181.441594,-73085.510509
1889.159179,29016.072926,-15248.242405,-72625.853210
1889.161746,-148.041188,2220.617826,-74004.825107
1889.164312,13915.871710,-3256.906145,-75996.673402
1889.166879,7698.141797,-5921.647536,-76149.892501
1889.169446,3256.906145,5921.647536,-75690.235202
1889.172012,-15100.201217,17468.860231,-76149.892501
1889.174579,5181.441594,9474.636058,-77222.426198
1889.177145,-6365.771101,444.123565,-75537.016103
1889.179712,8734.430116,-5329.482782,-74004.825107
1889.182278,1480.411884,5921.647536,-73545.167808
1889.184845,-7402.059420,-740.205942,-75996.673402
1889.187412,-6809.894666,1184.329507,-76609.549800
1889.189978,-1036.288319,-2220.617826,-74924.139704
1889.192545,-10214.842000,148.041188,-74924.139704
1889.195111,-6809.894666,3701.029710,-74617.701505
1889.197678,444.123565,3552.988522,-73391.948708
1889.200244,11695.253884,3404.947333,-74004.825107
1889.202811,-2516.700203,1332.370696,-76149.892501
1889.205377,0.000000,-3849.070898,-77222.426198
1889.207944,-31384.731941,296.082377,-76915.987999
1889.210511,-15544.324782,0.000000,-77528.864398
1889.213077,-31532.773129,11251.130318,-78754.617194
1889.215644,13619.789333,10510.924376,-70940.443115
1889.218210,31680.814318,3108.864956,-72012.976812
1889.220777,-11695.253884,-740.205942,-74617.701505
1889.223343,-25315.043216,1184.329507,-76915.987999
1889.225910,444.123565,4441.235652,-73391.948708
1889.228476,4293.194464,-740.205942,-75537.016103
1889.231043,-16580.613101,4737.318029,-79673.931792
1889.233610,-18209.066173,12287.418637,-76762.768900
1889.236176,8734.430116,4441.235652,-74158.044206
1889.238743,11251.130318,-3404.947333,-74770.920605
1889.241309,2664.741391,1332.370696,-74464.482406
1889.243876,-1184.329507,-5625.565159,-77528.864398
1889.246442,-3552.988522,7698.141797,-75843.454302
1889.249009,34641.638086,444.123565,-72779.072310
1889.251575,-3108.864956,-1036.288319,-76456.330700
1889.254142,7994.224174,-148.041188,-74464.482406
1889.256709,2072.576638,4885.359217,-73391.948708
1889.259275,21021.848753,14211.954086,-73545.167808
1889.261842,-18061.024985,4145.153275,-78601.398095
1889.264366,13915.871710,6513.812290,-72166.195912
1889.266890,19393.395680,1184.329507,-73238.729609
1889.269414,7105.977043,3108.864956,-77682.083497
1889.271938,10214.842000,-15248.242405,-77835.302597
1889.274463,-33457.308578,5773.606348,-79061.055394
1889.276987,-13915.871710,7698.141797,-73698.386908
1889.279511,66322.452403,0.000000,-68488.937521
1889.282035,14359.995275,-4737.318029,-74617.701505
1889.284559,-9918.759623,-7846.182985,-79061.055394
1889.287084,-14211.954086,5625.565159,-76303.111601
1889.289608,29312.155303,11843.295072,-72319.415011
1889.292132,2664.741391,-5033.400406,-75843.454302
1889.294656,2812.782580,1184.329507,-74924.139704
1889.297180,-5181.441594,10955.047942,-75690.235202
1889.299705,17468.860231,3997.112087,-74464.482406
1889.302229,5921.647536,2812.782580,-77835.302597
1889.304753,-1628.453072,740.205942,-74158.044206
1889.307277,4589.276840,1776.494261,-72166.195912
1889.309801,20725.766376,18505.148550,-70787.224015
1889.312325,-15840.407159,-7994.224174,-78601.398095
1889.314850,-9030.512492,3701.029710,-76609.549800
1889.317374,-18505.148550,5033.400406,-78294.959896
1889.319898,888.247130,5773.606348,-73698.386908
1889.322422,-5181.441594,1628.453072,-74004.825107
1889.324946,-3997.112087,6069.688724,-74464.482406
1889.327471,-4737.318029,740.205942,-76762.768900
1889.329995,7402.059420,-2664.741391,-75537.016103
1889.332519,12435.459826,-296.082377,-72166.195912
1889.335043,31236.690752,-11399.171507,-75230.577904
1889.337567,-76537.294403,15988.448347,-83044.751983
1889.340092,-39971.120868,11547.212695,-73698.386908
1889.342616,86900.177591,-2516.700203,-66037.431928
1889.345140,34493.596897,-4441.235652,-72012.976812
1889.347664,-45152.562462,-4293.194464,-80440.027290
1889.350188,-23242.466579,6217.729913,-76149.892501
1889.352712,30940.608376,2960.823768,-69714.690318
1889.355237,-11547.212695,2368.659014,-75843.454302
1889.357761,-25315.043216,1776.494261,-80133.589091
1889.360285,-21910.095883,12139.377449,-77222.426198
1889.362809,14952.160028,5921.647536,-73085.510509
1889.365343,3849.070898,-6809.894666,-75690.235202
1889.367877,-1332.370696,2664.741391,-73698.386908
1889.370411,14063.912898,-4293.194464,-73851.606007
1889.372945,1184.329507,8290.306550,-75690.235202
1889.375479,30052.361245,740.205942,-74004.825107
1889.378013,-4737.318029,1776.494261,-77222.426198
1889.380547,5477.523971,-592.164754,-75537.016103
1889.383082,4293.194464,4589.276840,-72625.853210
1889.385616,12583.501014,12435.459826,-74464.482406
1889.388150,-17764.942608,8142.265362,-77222.426198
1889.390684,14211.954086,3404.947333,-74158.044206
1889.393218,7550.100608,-3404.947333,-75230.577904
1889.395752,-4589.276840,9622.677246,-75843.454302
1889.398286,-2072.576638,7846.182985,-74311.263306
1889.400820,12435.459826,7402.059420,-69714.690318
1889.403354,29904.320057,6069.688724,-70021.128517
1889.405888,38046.585419,-2072.576638,-72319.415011
1889.408422,-5477.523971,5477.523971,-77375.645298
1889.410956,10510.924376,12583.501014,-74311.263306
1889.413490,7994.224174,4441.235652,-74770.920605
1889.416024,23242.466579,-1480.411884,-71093.662214
1889.418558,-888.247130,13471.748144,-73391.948708
1889.421092,3256.906145,-592.164754,-77069.207099
1889.423626,-10066.800811,3997.112087,-79367.493593
1889.426160,-148.041188,-9474.636058,-76456.330700
1889.428694,45892.768404,3849.070898,-68795.375720
1889.431228,-21465.972318,7994.224174,-74158.044206
1889.433762,-18357.107362,-6661.853478,-79367.493593
1889.436296,-592.164754,444.123565,-77069.207099
1889.438830,4885.359217,7846.182985,-76149.892501
1889.441364,-2812.782580,5773.606348,-75843.454302
1889.443899,-8734.430116,444.123565,-74924.139704
1889.446433,-1480.411884,-296.082377,-74464.482406
1889.448967,-11251.130318,2516.700203,-74770.920605
1889.451501,5181.441594,2960.823768,-74311.263306
1889.454035,10362.883188,2812.782580,-74158.044206
1889.456569,11695.253884,10510.924376,-73238.729609
1889.459103,31828.855506,-8882.471304,-71093.662214
1889.461637,-13619.789333,-10214.842000,-76456.330700
1889.464171,-46040.809592,-592.164754,-83964.066581
1889.466713,-71059.770432,17616.901420,-82431.875585
1889.469256,38342.667796,11547.212695,-71093.662214
1889.471798,30792.567187,-1036.288319,-71246.881314
1889.474341,-13619.789333,-8586.388927,-75230.577904
1889.476883,-32865.143825,-148.041188,-75690.235202
1889.479425,20133.601622,1628.453072,-70021.128517
1889.481968,740.205942,-5329.482782,-77988.521696
1889.484510,-21317.931130,3552.988522,-76915.987999
1889.487053,-14211.954086,296.082377,-78294.959896
1889.489595,-7402.059420,3849.070898,-75690.235202
1889.492137,14952.160028,-1036.288319,-71246.881314
1889.494680,27239.578666,-8734.430116,-73085.510509
1889.497222,-16728.654289,1924.535449,-77988.521696
1889.499765,18505.148550,6809.894666,-76303.111601
1889.502307,9918.759623,-2960.823768,-76456.330700
1889.504850,15396.283594,-1480.411884,-73085.510509
1889.507392,-6957.935855,3404.947333,-73085.510509
1889.509934,7254.018232,17468.860231,-73238.729609
1889.512477,-3997.112087,1628.453072,-77222.426198
1889.515019,10510.924376,2516.700203,-75537.016103
1889.517562,33161.226202,-9622.677246,-72012.976812
1889.520104,21021.848753,-4885.359217,-74311.263306
1889.522647,-34049.473332,1036.288319,-78601.398095
1889.525189,-29904.320057,6809.894666,-76915.987999
1889.527731,40859.367998,5033.400406,-69561.471218
1889.530274,45596.686027,-10510.924376,-72472.634111
1889.532816,-11103.089130,-10510.924376,-79367.493593
1889.535359,-9178.553681,-296.082377,-78141.740796
1889.537901,10214.842000,4589.276840,-71093.662214
1889.540444,26055.249158,-3552.988522,-72166.195912
1889.542986,-9178.553681,4293.194464,-76149.892501
1889.545528,3701.029710,9622.677246,-77835.302597
1889.548071,-5477.523971,22354.219448,-76149.892501
1889.550613,5773.606348,7402.059420,-76149.892501
1889.553156,13027.624579,-7254.018232,-71706.538613
1889.555698,6365.771101,3997.112087,-69561.471218
1889.558240,8142.265362,13767.830521,-72932.291410
1889.560783,-9770.718434,-2368.659014,-79367.493593
1889.563325,-1480.411884,5773.606348,-77682.083497
1889.565868,-13915.871710,4145.153275,-76762.768900
1889.568416,-6809.894666,10510.924376,-73698.386908
1889.570965,-1332.370696,4293.194464,-72625.853210
1889.573513,-5921.647536,5477.523971,-75077.358804
1889.576061,-6217.729913,4589.276840,-78601.398095
1889.578610,8586.388927,-5921.647536,-76762.768900
1889.581158,16284.530724,-5181.441594,-75383.797003
1889.583707,-22650.301825,-4145.153275,-77835.302597
1889.586255,-22502.260637,2220.617826,-76762.768900
1889.588803,3701.029710,-5773.606348,-77375.645298
1889.591352,-14211.954086,2664.741391,-79673.931792
1889.593900,-8142.265362,3108.864956,-76609.549800
1889.596449,-888.247130,6069.688724,-74004.825107
1889.598997,-2072.576638,-3256.906145,-73238.729609
1889.601545,-14508.036463,-1628.453072,-74311.263306
1889.604094,-14508.036463,10807.006753,-76149.892501
1889.606642,-8586.388927,14508.036463,-78294.959896
1889.609191,-8882.471304,888.247130,-79673.931792
1889.611739,6809.894666,-5921.647536,-74311.263306
1889.614287,23094.425390,5181.441594,-68335.718422
1889.616836,-6513.812290,-5033.400406,-75843.454302
1889.619384,-17024.736666,8882.471304,-77682.083497
1889.621933,16876.695478,-6217.729913,-77375.645298
1889.624481,11843.295072,1480.411884,-75843.454302
1889.627029,9770.718434,1332.370696,-75230.577904
1889.629578,-3256.906145,6809.894666,-72932.291410
1889.632126,8734.430116,-1924.535449,-73238.729609
1889.634675,16432.571912,-8142.265362,-73085.510509
1889.637223,35825.967593,1036.288319,-74158.044206
1889.639771,-7698.141797,8882.471304,-77988.521696
1889.642320,28275.866984,-1628.453072,-70021.128517
1889.644868,29904.320057,-9918.759623,-72779.072310
1889.647417,2072.576638,-9474.636058,-76609.549800
1889.649965,-61437.093186,-3997.112087,-88560.639569
1889.652513,-50482.045244,27239.578666,-81512.560987
1889.655062,39971.120868,-10658.965565,-76149.892501
1889.657610,15248.242405,4441.235652,-72319.415011
1889.660159,18801.230927,-2220.617826,-73085.510509
1889.662707,-3552.988522,10510.924376,-72472.634111
1889.665255,31680.814318,-11399.171507,-73238.729609
1889.667804,-1924.535449,6957.935855,-76303.111601
1889.670357,11547.212695,7846.182985,-73698.386908
1889.672910,-15544.324782,4885.359217,-80286.808190
1889.675463,1036.288319,4589.276840,-72932.291410
1889.678017,8882.471304,-296.082377,-69867.909418
1889.680570,19689.478057,12583.501014,-70021.128517
1889.683123,-29312.155303,-5921.647536,-79980.369991
1889.685677,-2072.576638,8290.306550,-77375.645298
1889.688230,-11251.130318,2368.659014,-77835.302597
1889.690783,-444.123565,13915.871710,-72472.634111
1889.693337,-6069.688724,5329.482782,-72932.291410
1889.695890,-4589.276840,7254.018232,-74158.044206
1889.698443,-2664.741391,3701.029710,-78294.959896
1889.700997,2072.576638,-148.041188,-78448.178995
1889.703550,-15248.242405,9474.636058,-75077.358804
1889.706103,17912.983796,9622.677246,-70787.224015
1889.708657,21910.095883,-148.041188,-71706.538613
1889.711210,-296.082377,-3552.988522,-76609.549800
1889.713763,-40859.367998,7698.141797,-80286.808190
1889.716317,-296.082377,3256.906145,-76456.330700
1889.718870,2072.576638,6957.935855,-74770.920605
1889.721423,-10955.047942,-1480.411884,-75077.358804
1889.723977,-31828.855506,6365.771101,-75230.577904
1889.726530,20133.601622,-9178.553681,-71859.757712
1889.729083,-9030.512492,7550.100608,-75537.016103
1889.731637,26351.331535,2368.659014,-73851.606007
1889.734190,-24426.796086,-2960.823768,-79980.369991
1889.736743,4737.318029,7402.059420,-72625.853210
1889.739297,27831.743419,2368.659014,-71400.100414
1889.741850,5625.565159,5033.400406,-74158.044206
1889.744403,5921.647536,1480.411884,-76762.768900
1889.746957,-2812.782580,4737.318029,-77682.083497
1889.749510,21169.889941,-2220.617826,-74770.920605
1889.752068,6661.853478,2072.576638,-72779.072310
1889.754626,6957.935855,13175.665768,-72472.634111
1889.757184,-4293.194464,5773.606348,-74924.139704
1889.759742,37010.297100,2812.782580,-73698.386908
1889.762300,25759.166782,-1480.411884,-73545.167808
1889.764858,28127.825796,-1776.494261,-73085.510509
1889.767416,-22946.384202,-296.082377,-78294.959896
1889.769974,-13619.789333,444.123565,-73851.606007
1889.772532,33309.267390,3108.864956,-74770.920605
1889.775090,3997.112087,-11547.212695,-78141.740796
1889.777648,-12879.583391,-1480.411884,-80899.684589
1889.780206,6809.894666,11547.212695,-74158.044206
1889.782764,31088.649564,-1480.411884,-71246.881314
1889.785322,5921.647536,-296.082377,-73085.510509
1889.787880,-3849.070898,6513.812290,-74311.263306
1889.790438,4145.153275,10362.883188,-76456.330700
1889.792995,-3849.070898,3256.906145,-79214.274493
1889.795553,33605.349767,148.041188,-71706.538613
1889.798111,-1184.329507,-2664.741391,-71246.881314
1889.800669,-2368.659014,9474.636058,-72472.634111
1889.803227,-16728.654289,-1480.411884,-78141.740796
1889.805785,740.205942,10510.924376,-76915.987999
1889.808343,-5033.400406,3849.070898,-76456.330700
1889.810901,-148.041188,11843.295072,-74770.920605
1889.813459,-3404.947333,4885.359217,-72932.291410
1889.816017,-5477.523971,-296.082377,-73391.948708
1889.818575,-1776.494261,-1776.494261,-74311.263306
1889.821133,-2220.617826,7698.141797,-77375.645298
1889.823691,-10066.800811,-2812.782580,-81818.999186
1889.826249,-46929.056723,15544.324782,-80593.246390
1889.828807,-24870.919651,14063.912898,-74311.263306
1889.831365,13175.665768,15988.448347,-69101.813920
1889.833923,55811.528027,-3404.947333,-68795.375720
1889.836481,-11843.295072,3849.070898,-77222.426198
1889.839039,-19245.354492,740.205942,-78601.398095
1889.841597,-13175.665768,11695.253884,-73851.606007
1889.844155,6957.935855,5033.400406,-72319.415011
1889.846713,-17320.819043,-6513.812290,-76609.549800
1889.849271,-12435.459826,4441.235652,-77682.083497
1889.851829,6513.812290,5477.523971,-75383.797003
1889.854390,12139.377449,7550.100608,-74311.263306
1889.856951,-2812.782580,5773.606348,-74617.701505
1889.859511,28423.908173,5477.523971,-71246.881314
1889.862072,-6957.935855,2368.659014,-76149.892501
1889.864633,14508.036463,14063.912898,-74617.701505
1889.867193,7402.059420,7254.018232,-76456.330700
1889.869754,19393.395680,3552.988522,-75077.358804
1889.872315,-7105.977043,-4885.359217,-76303.111601
1889.874876,10066.800811,17320.819043,-71400.100414
1889.877436,-1924.535449,1924.535449,-75077.358804
1889.879997,27831.743419,12435.459826,-76303.111601
1889.882558,-25611.125593,1480.411884,-79214.274493
1889.885119,-23834.631332,11103.089130,-78601.398095
1889.887679,-11843.295072,10658.965565,-74464.482406
1889.890240,45596.686027,3552.988522,-66803.527426
1889.892801,20725.766376,-22502.260637,-75843.454302
1889.895362,-15988.448347,-148.041188,-78141.740796
1889.897922,21614.013506,-8734.430116,-76456.330700
1889.900483,19393.395680,6957.935855,-73238.729609
1889.903044,13323.706956,-1184.329507,-73698.386908
1889.905605,-15692.365970,16876.695478,-74464.482406
1889.908165,12879.583391,3849.070898,-74464.482406
1889.910726,13915.871710,9030.512492,-73391.948708
1889.913287,7550.100608,-444.123565,-79827.150892
1889.915847,-37602.461854,2960.823768,-79827.150892
1889.918408,-15544.324782,-2516.700203,-75383.797003
1889.920969,9622.677246,14804.118840,-70021.128517
1889.923530,6661.853478,-592.164754,-73698.386908
1889.926090,-8142.265362,2368.659014,-77528.864398
1889.928651,-24426.796086,-1924.535449,-80593.246390
1889.931212,-444.123565,-2960.823768,-75537.016103
1889.933773,888.247130,5329.482782,-71706.538613
1889.936333,-5921.647536,9770.718434,-72779.072310
1889.938894,-9622.677246,6809.894666,-77835.302597
1889.941455,-5033.400406,-2220.617826,-79520.712692
1889.944016,-20281.642811,14063.912898,-78448.178995
1889.946576,-21021.848753,2220.617826,-77375.645298
1889.949137,296.082377,2516.700203,-74924.139704
1889.951698,-14211.954086,7698.141797,-75537.016103
1889.954259,8586.388927,-5033.400406,-74004.825107
1889.956822,-5329.482782,3849.070898,-75843.454302
1889.959385,-10066.800811,2220.617826,-77069.207099
1889.961949,-21614.013506,6217.729913,-75843.454302
1889.964512,9770.718434,-11991.336260,-73545.167808
1889.967076,-15840.407159,7846.182985,-74617.701505
1889.969639,-2072.576638,7254.018232,-77682.083497
1889.972203,-7698.141797,-3552.988522,-77835.302597
1889.974766,22354.219448,-1924.535449,-72472.634111
1889.977329,29756.278868,-2368.659014,-71246.881314
1889.979893,-148.041188,5329.482782,-73698.386908
1889.982456,13323.706956,2960.823768,-73698.386908
1889.985020,-1184.329507,1924.535449,-77222.426198
1889.987583,20281.642811,-2516.700203,-75383.797003
1889.990147,148.041188,3701.029710,-74464.482406
1889.992710,10955.047942,9030.512492,-73851.606007
1889.995273,1628.453072,-3849.070898,-73698.386908
1889.997837,9326.594869,-14508.036463,-75996.673402
1890.000400,5181.441594,3552.988522,-76456.330700
1890.002964,-21762.054695,-3552.988522,-83351.190182
1890.005527,-49889.880491,8734.430116,-83351.190182
1890.008091,-83347.189069,18801.230927,-85189.819378
1890.010654,-1036.288319,22798.343014,-74464.482406
1890.013217,31976.896694,23982.672521,-72319.415011
1890.015781,40563.285622,6365.771101,-70327.566716
1890.018344,10658.965565,1924.535449,-74158.044206
1890.020908,18505.148550,6957.935855,-72012.976812
1890.023471,12731.542202,-6513.812290,-75537.016103
1890.026035,-148.041188,5329.482782,-74464.482406
1890.028598,-5181.441594,8438.347739,-75537.016103
1890.031161,15100.201217,14063.912898,-76762.768900
1890.033725,-30052.361245,6069.688724,-79061.055394
1890.036288,9918.759623,-740.205942,-70327.566716
1890.038852,11547.212695,3849.070898,-71553.319513
1890.041415,1628.453072,2072.576638,-74004.825107
1890.043979,-6365.771101,1628.453072,-77375.645298
1890.046542,-14804.118840,1332.370696,-77988.521696
1890.049105,4737.318029,-9770.718434,-75383.797003
1890.051669,740.205942,1776.494261,-72779.072310
1890.054232,-3552.988522,6661.853478,-74617.701505
1890.056796,-4737.318029,9770.718434,-76609.549800
1890.059361,5329.482782,-1628.453072,-74464.482406
1890.061925,37602.461854,-12879.583391,-74770.920605
1890.064490,-28423.908173,-1924.535449,-81359.341888
1890.067055,-86011.930460,18801.230927,-81512.560987
1890.069620,-62325.340316,15692.365970,-80746.465489
1890.072184,28719.990550,5625.565159,-72012.976812
1890.074749,12583.501014,-1924.535449,-73238.729609
1890.077314,-22798.343014,-148.041188,-78907.836294
1890.079879,-34197.514520,11991.336260,-77069.207099
1890.082444,23390.507767,5329.482782,-71400.100414
1890.085008,8882.471304,-7254.018232,-73238.729609
1890.087573,12435.459826,4145.153275,-74464.482406
1890.090138,-14804.118840,12139.377449,-77528.864398
1890.092703,5181.441594,10510.924376,-75690.235202
1890.095268,29312.155303,4589.276840,-71093.662214
1890.097832,6809.894666,-3256.906145,-74770.920605
1890.100397,-6513.812290,2220.617826,-76609.549800
1890.102962,1628.453072,8586.388927,-76149.892501
1890.105527,11843.295072,5773.606348,-73851.606007
1890.108092,9770.718434,-3849.070898,-74311.263306
1890.110656,6809.894666,12435.459826,-72166.195912
1890.113221,1776.494261,-888.247130,-75537.016103
1890.115786,25463.084405,-11843.295072,-73391.948708
1890.118351,11103.089130,-7550.100608,-75230.577904
1890.120916,-17024.736666,4589.276840,-77835.302597
1890.123480,-24130.713709,21317.931130,-78294.959896
1890.126045,-2072.576638,4885.359217,-76303.111601
1890.128610,9474.636058,10510.924376,-74311.263306
1890.131175,34493.596897,-1036.288319,-74924.139704
1890.133740,33013.185013,3849.070898,-70787.224015
1890.136304,13915.871710,11399.171507,-72779.072310
1890.138869,-8290.306550,-3997.112087,-76456.330700
1890.141434,14656.077652,-3552.988522,-73238.729609
1890.143999,19245.354492,7550.100608,-73238.729609
1890.146564,-9622.677246,6809.894666,-79980.369991
1890.149128,-12583.501014,148.041188,-77835.302597
1890.151693,1184.329507,2072.576638,-71093.662214
1890.154258,26499.372724,11103.089130,-68948.594820
1890.156823,-18357.107362,888.247130,-77069.207099
1890.159388,-14063.912898,6809.894666,-78141.740796
1890.161953,-25018.960840,1332.370696,-80440.027290
1890.164519,2072.576638,-296.082377,-74770.920605
1890.167085,444.123565,8290.306550,-71553.319513
1890.169651,3404.947333,10362.883188,-71400.100414
1890.172217,-6957.935855,-3256.906145,-78141.740796
1890.174783,-14952.160028,-2960.823768,-79980.369991
1890.177348,-23094.425390,14804.118840,-77682.083497
1890.179914,18653.189738,5773.606348,-71246.881314
1890.182480,51518.333563,-9770.718434,-70787.224015
1890.185046,-34641.638086,4589.276840,-79367.493593
1890.187612,-41599.573940,7550.100608,-78754.617194
1890.190178,5181.441594,6809.894666,-74004.825107
1890.192744,9918.759623,2368.659014,-73545.167808
1890.195309,-3849.070898,4293.194464,-76762.768900
1890.197875,-33753.390955,16580.613101,-77682.083497
1890.200441,1480.411884,-2072.576638,-75690.235202
1890.203007,34049.473332,1480.411884,-70480.785816
1890.205573,8142.265362,2220.617826,-76303.111601
1890.208139,-25315.043216,13027.624579,-79367.493593
1890.210705,22354.219448,7698.141797,-73085.510509
1890.213270,19097.313304,3256.906145,-72779.072310
1890.215836,9030.512492,4737.318029,-74770.920605
1890.218402,-3849.070898,14211.954086,-75843.454302
1890.220968,12287.418637,-1184.329507,-76303.111601
1890.223534,592.164754,-4737.318029,-75843.454302
1890.226100,17468.860231,7402.059420,-72319.415011
1890.228665,9326.594869,2960.823768,-73851.606007
1890.231231,13619.789333,6513.812290,-73545.167808
1890.233797,-9178.553681,31236.690752,-74464.482406
1890.236363,26795.455100,15248.242405,-71400.100414
1890.238929,4145.153275,16136.489536,-72319.415011
1890.241495,16284.530724,12583.501014,-71706.538613
1890.244061,18653.189738,15544.324782,-74464.482406
1890.246626,7550.100608,15248.242405,-74924.139704
1890.249192,14952.160028,1480.411884,-74311.263306
1890.251758,21465.972318,9918.759623,-71400.100414
1890.254324,4441.235652,5033.400406,-73545.167808
1890.256890,-10362.883188,6217.729913,-77222.426198
1890.259456,-4885.359217,-9030.512492,-78141.740796
1890.262022,31088.649564,9622.677246,-73698.386908
1890.264588,-32124.937883,2368.659014,-79214.274493
1890.267154,-13915.871710,2812.782580,-74924.139704
1890.269720,7698.141797,5921.647536,-72625.853210
1890.272286,-1628.453072,-3701.029710,-74924.139704
1890.274852,-6365.771101,2664.741391,-77069.207099
1890.277418,-11399.171507,4589.276840,-78601.398095
1890.279984,-6365.771101,-7105.977043,-77222.426198
1890.282550,-5477.523971,4737.318029,-73391.948708
1890.285116,-3997.112087,5477.523971,-75690.235202
1890.287682,-1776.494261,7105.977043,-76915.987999
1890.290248,-17320.819043,15988.448347,-78141.740796
1890.292814,6217.729913,2220.617826,-75077.358804
1890.295380,26203.290347,-2072.576638,-70787.224015
1890.297946,21614.013506,-5181.441594,-74158.044206
1890.300513,-26647.413912,-5033.400406,-76303.111601
1890.303079,-9326.594869,6217.729913,-76915.987999
1890.305645,-9030.512492,7846.182985,-76303.111601
1890.308211,-3849.070898,5329.482782,-76303.111601
1890.310777,-17172.777854,-9326.594869,-77069.207099
1890.313343,-12435.459826,8882.471304,-74464.482406
1890.315909,-2072.576638,3256.906145,-75537.016103
1890.318475,9770.718434,1332.370696,-75690.235202
1890.321041,0.000000,148.041188,-75843.454302
1890.323607,31236.690752,-1628.453072,-73238.729609
1890.326173,-5477.523971,2664.741391,-75077.358804
1890.328739,24426.796086,8142.265362,-73238.729609
1890.331305,-14211.954086,888.247130,-77069.207099
1890.333871,22206.178260,-2220.617826,-74617.701505
1890.336438,1036.288319,-1776.494261,-74770.920605
1890.339004,13767.830521,9326.594869,-73851.606007
1890.341570,-12879.583391,9474.636058,-76762.768900
1890.344136,-3849.070898,10214.842000,-76915.987999
1890.346702,-10807.006753,-6217.729913,-80133.589091
1890.349268,-16728.654289,5773.606348,-77375.645298
1890.351834,4885.359217,-1036.288319,-75690.235202
1890.354400,-11695.253884,444.123565,-77069.207099
1890.356966,-11843.295072,5921.647536,-79061.055394
1890.359532,-592.164754,14063.912898,-75077.358804
1890.362098,30052.361245,-888.247130,-72932.291410
1890.364664,14804.118840,-296.082377,-73851.606007
1890.367231,148.041188,5921.647536,-74311.263306
1890.369798,-2220.617826,7698.141797,-76456.330700
1890.372364,18357.107362,2516.700203,-74158.044206
1890.374931,6809.894666,4441.235652,-78294.959896
1890.377497,-13027.624579,12435.459826,-76915.987999
1890.380064,-22502.260637,1036.288319,-77222.426198
1890.382631,11399.171507,10807.006753,-70787.224015
1890.385197,3256.906145,-5773.606348,-74924.139704
1890.387764,-6217.729913,9178.553681,-75690.235202
1890.390331,-23390.507767,-740.205942,-80899.684589
1890.392897,-740.205942,-3849.070898,-75383.797003
1890.395464,1924.535449,3997.112087,-72166.195912
1890.398031,-6809.894666,10214.842000,-74617.701505
1890.400597,-6661.853478,-5181.441594,-76456.330700
1890.403164,10362.883188,-9918.759623,-78907.836294
1890.405730,-29904.320057,-3849.070898,-81359.341888
1890.408297,-8734.430116,3108.864956,-82585.094684
1890.410864,-57884.104664,16284.530724,-77528.864398
1890.413430,29312.155303,10807.006753,-69561.471218
1890.415997,13175.665768,2960.823768,-71706.538613
1890.418564,-17320.819043,-7254.018232,-77835.302597
1890.421130,-33457.308578,5329.482782,-78141.740796
1890.423697,20725.766376,-5921.647536,-72012.976812
1890.426264,-592.164754,-3552.988522,-74158.044206
1890.428830,4293.194464,7698.141797,-75077.358804
1890.431397,-16432.571912,7402.059420,-77222.426198
1890.433963,25463.084405,6957.935855,-72319.415011
1890.436530,24574.837274,-7105.977043,-74464.482406
1890.439097,-3552.988522,3701.029710,-75690.235202
1890.441663,3404.947333,6069.688724,-75690.235202
1890.444230,7105.977043,15544.324782,-74311.263306
1890.446797,16432.571912,-3404.947333,-74770.920605
1890.449363,6069.688724,1924.535449,-74770.920605
1890.451930,7105.977043,8882.471304,-74158.044206
1890.454497,-2516.700203,7846.182985,-76915.987999
1890.457063,-15544.324782,19985.560434,-76915.987999
1890.459630,28571.949361,21465.972318,-68642.156621
1890.462196,71799.976374,-15248.242405,-69255.033019
1890.464763,-44412.356520,7105.977043,-82431.875585
1890.467330,-43228.027013,20429.683999,-76915.987999
1890.469897,47225.139100,9918.759623,-76609.549800
1890.472464,31384.731941,12583.501014,-72625.853210
1890.475031,33605.349767,-3997.112087,-73698.386908
1890.477598,-11547.212695,15544.324782,-73698.386908
1890.480165,10362.883188,10214.842000,-73391.948708
1890.482732,18801.230927,0.000000,-75383.797003
1890.485299,1924.535449,-10510.924376,-76915.987999
1890.487866,25167.002028,6069.688724,-72779.072310
1890.490433,-22354.219448,3552.988522,-76762.768900
1890.493000,-6661.853478,-3256.906145,-76303.111601
1890.495567,-11251.130318,888.247130,-76303.111601
1890.498135,-10066.800811,1184.329507,-76303.111601
1890.500702,2516.700203,5477.523971,-75383.797003
1890.503269,7698.141797,7402.059420,-73545.167808
1890.505836,6513.812290,3256.906145,-73391.948708
1890.508403,-8290.306550,740.205942,-75383.797003
1890.510970,-6957.935855,-148.041188,-73391.948708
1890.513537,16728.654289,3997.112087,-74617.701505
1890.516104,9474.636058,-2516.700203,-75996.673402
1890.518671,-13027.624579,-296.082377,-78601.398095
1890.521238,-34641.638086,9030.512492,-78754.617194
1890.523805,-4145.153275,12583.501014,-73085.510509
1890.526372,21169.889941,-2220.617826,-71553.319513
1890.528939,-12879.583391,2220.617826,-75996.673402
1890.531506,-23242.466579,-1924.535449,-78448.178995
1890.534073,-16876.695478,-6217.729913,-77528.864398
1890.536641,5181.441594,6217.729913,-72472.634111
1890.539208,888.247130,4885.359217,-74924.139704
1890.541775,-9770.718434,-3849.070898,-77988.521696
1890.544342,3997.112087,1924.535449,-74770.920605
1890.546909,34493.596897,-11251.130318,-73391.948708
1890.549476,-13027.624579,11103.089130,-76609.549800
1890.552043,13175.665768,-148.041188,-77069.207099
1890.554610,-6365.771101,-5033.400406,-76915.987999
1890.557177,18653.189738,-1628.453072,-73851.606007
1890.559744,-296.082377,5033.400406,-74158.044206
1890.562311,5329.482782,5181.441594,-76303.111601
1890.564878,-9474.636058,12287.418637,-77988.521696
1890.567445,33309.267390,-10510.924376,-72625.853210
1890.570012,11695.253884,-16136.489536,-76303.111601
1890.572543,-27831.743419,2664.741391,-77988.521696
1890.575074,-13915.871710,2072.576638,-77528.864398
1890.577605,-10362.883188,21614.013506,-77835.302597
1890.580136,10955.047942,-1036.288319,-74924.139704
1890.582666,24722.878463,7994.224174,-73085.510509
1890.585197,16876.695478,12139.377449,-73238.729609
1890.587728,6217.729913,3552.988522,-74464.482406
1890.590259,9474.636058,1332.370696,-72472.634111
1890.592789,15692.365970,1332.370696,-73851.606007
1890.595320,-3849.070898,-888.247130,-75537.016103
1890.597851,43968.232955,2368.659014,-72625.853210
1890.600382,-32124.937883,-148.041188,-76762.768900
1890.602912,-5625.565159,-3849.070898,-75537.016103
1890.605443,-11547.212695,7254.018232,-74770.920605
1890.607974,3256.906145,4145.153275,-74617.701505
1890.610505,-4293.194464,4293.194464,-76609.549800
1890.613036,2368.659014,2072.576638,-75843.454302
1890.615566,2516.700203,-3849.070898,-74924.139704
1890.618097,-5921.647536,740.205942,-74924.139704
1890.620628,-5773.606348,3997.112087,-75077.358804
1890.623159,-9326.594869,9178.553681,-77835.302597
1890.625689,-31236.690752,15248.242405,-79827.150892
1890.628220,-14804.118840,15840.407159,-75077.358804
1890.630751,49445.756926,1628.453072,-67263.184724
1890.633282,34641.638086,-5181.441594,-71093.662214
1890.635813,-34493.596897,-1776.494261,-77988.521696
1890.638343,-21614.013506,6217.729913,-77375.645298
1890.640874,-1628.453072,15988.448347,-73698.386908
1890.643405,9030.512492,-8586.388927,-76762.768900
1890.645936,-29608.237680,5033.400406,-77528.864398
1890.648466,5773.606348,2812.782580,-73698.386908
1890.650997,-296.082377,-148.041188,-74464.482406
1890.653528,17172.777854,-4441.235652,-74464.482406
1890.656059,17172.777854,-1480.411884,-74770.920605
1890.658589,10214.842000,2664.741391,-75383.797003
1890.661120,11399.171507,12879.583391,-73391.948708
1890.663651,15988.448347,7402.059420,-74464.482406
1890.666182,1776.494261,-2664.741391,-75383.797003
1890.668713,5033.400406,-740.205942,-73851.606007
1890.671243,6069.688724,7550.100608,-73391.948708
1890.673782,-444.123565,8142.265362,-77528.864398
1890.676321,16432.571912,-11695.253884,-74924.139704
1890.678860,-14656.077652,16432.571912,-72166.195912
1890.681398,65286.164084,3552.988522,-67722.842023
1890.683937,-6957.935855,-1924.535449,-79214.274493
1890.686476,-15248.242405,-5033.400406,-79673.931792
1890.689014,7105.977043,-10362.883188,-78294.959896
1890.691553,-3701.029710,17172.777854,-75843.454302
1890.694092,29164.114115,3256.906145,-74924.139704
1890.696630,-2812.782580,9326.594869,-73391.948708
1890.699169,19393.395680,3849.070898,-72932.291410
1890.701708,-7105.977043,14508.036463,-74924.139704
1890.704247,8734.430116,444.123565,-79520.712692
1890.706785,-5033.400406,2516.700203,-74924.139704
1890.709324,13619.789333,-2960.823768,-72166.195912
1890.711863,-9918.759623,20429.683999,-71246.881314
1890.714401,-8734.430116,2960.823768,-76303.111601
1890.716940,-16284.530724,5773.606348,-76762.768900
1890.719479,-5625.565159,2368.659014,-79980.369991
1890.722018,-14359.995275,-740.205942,-77375.645298
1890.724556,11843.295072,12583.501014,-70634.004916
1890.727095,-4441.235652,9030.512492,-73085.510509
1890.729634,-5477.523971,-6661.853478,-76609.549800
1890.732172,-29756.278868,740.205942,-81052.903688
1890.734711,-6957.935855,3701.029710,-77835.302597
1890.737250,9770.718434,16580.613101,-71400.100414
1890.739789,38194.626607,-2220.617826,-68795.375720
1890.742327,-10658.965565,1480.411884,-74464.482406
1890.744866,-21317.931130,3701.029710,-75383.797003
1890.747405,-25463.084405,3997.112087,-77682.083497
1890.749943,4589.276840,-3997.112087,-75383.797003
1890.752482,888.247130,-1184.329507,-76303.111601
1890.755021,-11695.253884,2072.576638,-76609.549800
1890.757560,-14211.954086,-444.123565,-75690.235202
1890.760098,21910.095883,5477.523971,-69867.909418
1890.762637,25611.125593,-17764.942608,-74924.139704
1890.765176,-15248.242405,12731.542202,-77835.302597
1890.767714,7254.018232,-2812.782580,-78754.617194
1890.770253,6513.812290,-1036.288319,-73698.386908
1890.772792,19985.560434,-3552.988522,-72319.415011
1890.775337,-2812.782580,9622.677246,-73085.510509
1890.777882,10214.842000,9030.512492,-74924.139704
1890.780428,-3997.112087,1332.370696,-76609.549800
1890.782973,21169.889941,1480.411884,-74770.920605
1890.785518,6513.812290,-148.041188,-75230.577904
1890.788064,-9178.553681,5773.606348,-74924.139704
1890.790609,-2812.782580,6365.771101,-73238.729609
1890.793154,22058.137072,3552.988522,-74158.044206
1890.795699,7550.100608,-1924.535449,-78294.959896
1890.798245,7402.059420,4293.194464,-76915.987999
1890.800790,11103.089130,1628.453072,-73851.606007
1890.803335,24130.713709,-2812.782580,-71859.757712
1890.805880,148.041188,444.123565,-73238.729609
1890.808426,8586.388927,5625.565159,-73851.606007
1890.810971,3256.906145,8586.388927,-79520.712692
1890.813516,-12583.501014,5773.606348,-78141.740796
1890.816062,-6661.853478,-1036.288319,-73391.948708
1890.818607,12731.542202,13619.789333,-68335.718422
1890.821152,-17764.942608,-1480.411884,-75843.454302
1890.823697,-7994.224174,7698.141797,-77069.207099
1890.826243,-12139.377449,-2812.782580,-80133.589091
1890.828788,9030.512492,7698.141797,-74004.825107
1890.831333,888.247130,12731.542202,-72779.072310
1890.833879,592.164754,3849.070898,-71246.881314
1890.836424,-5477.523971,-3404.947333,-74311.263306
1890.838969,-3997.112087,5329.482782,-75537.016103
1890.841514,29164.114115,1184.329507,-72932.291410
1890.844060,37898.544230,-6069.688724,-73238.729609
1890.846605,-37158.338288,-1036.288319,-78448.178995
1890.849150,-24574.837274,5329.482782,-74311.263306
1890.851696,-1036.288319,7846.182985,-72472.634111
1890.854241,1036.288319,2960.823768,-74924.139704
1890.856786,-23242.466579,-8290.306550,-80133.589091
1890.859331,-2812.782580,7698.141797,-74311.263306
1890.861877,12731.542202,0.000000,-72166.195912
1890.864422,-2072.576638,-6069.688724,-75383.797003
1890.866967,-9770.718434,1924.535449,-73851.606007
1890.869512,31828.855506,2664.741391,-73085.510509
1890.872058,7105.977043,5921.647536,-75537.016103
1890.874603,33013.185013,12731.542202,-73851.606007
1890.877153,-10955.047942,-148.041188,-76915.987999
1890.879703,14804.118840,296.082377,-72779.072310
1890.882253,-3108.864956,-4441.235652,-73085.510509
1890.884803,14063.912898,11991.336260,-74004.825107
1890.887353,-8142.265362,592.164754,-79673.931792
1890.889903,3701.029710,8290.306550,-79980.369991
1890.892453,-31680.814318,-4589.276840,-80899.684589
1890.895003,11695.253884,9474.636058,-72012.976812
1890.897553,12139.377449,-7994.224174,-73085.510509
1890.900103,-3701.029710,592.164754,-77835.302597
1890.902653,2368.659014,296.082377,-79214.274493
1890.905203,3256.906145,2220.617826,-76303.111601
1890.907753,30200.402434,-5329.482782,-72625.853210
1890.910303,1480.411884,-444.123565,-73085.510509
1890.912853,6217.729913,4293.194464,-73545.167808
1890.915403,-13619.789333,-1924.535449,-76762.768900
1890.917953,52406.580694,-296.082377,-73698.386908
1890.920503,-41303.491564,592.164754,-81818.999186
1890.923053,-7550.100608,1628.453072,-75690.235202
1890.925603,-10807.006753,4885.359217,-72472.634111
1890.928152,6661.853478,1184.329507,-71706.538613
1890.930702,-18801.230927,6217.729913,-75843.454302
1890.933252,3108.864956,9622.677246,-75537.016103
1890.935802,-7105.977043,-8734.430116,-78754.617194
1890.938352,-2960.823768,-1332.370696,-72625.853210
1890.940902,-3404.947333,8882.471304,-73085.510509
1890.943452,-11991.336260,20577.725188,-71859.757712
1890.946002,22058.137072,444.123565,-75690.235202
1890.948552,18209.066173,-4441.235652,-77222.426198
1890.951102,-14656.077652,4737.318029,-78754.617194
1890.953652,-31384.731941,9474.636058,-75690.235202
1890.956202,1628.453072,148.041188,-72472.634111
1890.958752,-4293.194464,5773.606348,-71859.757712
1890.961302,8734.430116,-9030.512492,-76303.111601
1890.963852,-24870.919651,13767.830521,-78907.836294
1890.966402,-9326.594869,4145.153275,-77988.521696
1890.968952,-740.205942,-8438.347739,-74311.263306
1890.971502,21465.972318,-444.123565,-68795.375720
1890.974052,2368.659014,-8882.471304,-75383.797003
1890.976602,-12731.542202,15544.324782,-77222.426198
1890.979156,16728.654289,-3849.070898,-78601.398095
1890.981711,12139.377449,-3108.864956,-76609.549800
1890.984265,2516.700203,740.205942,-75537.016103
1890.986820,-7698.141797,11399.171507,-72932.291410
1890.989374,6217.729913,-2368.659014,-73391.948708
1890.991929,11991.336260,888.247130,-73698.386908
1890.994483,13915.871710,5773.606348,-75537.016103
1890.997038,41451.532752,2812.782580,-71246.881314
1890.999592,15396.283594,-1776.494261,-71553.319513
1891.002147,11695.253884,-5181.441594,-71246.881314
1891.004701,3256.906145,-6217.729913,-75843.454302
1891.007256,-5477.523971,9030.512492,-78141.740796
1891.009810,9918.759623,888.247130,-78448.178995
1891.012365,14952.160028,3701.029710,-75996.673402
1891.014919,17320.819043,-4441.235652,-72932.291410
1891.017474,296.082377,7402.059420,-71400.100414
1891.020028,6217.729913,296.082377,-72779.072310
1891.022583,20873.807564,3997.112087,-74770.920605
1891.025137,-17764.942608,-2368.659014,-79980.369991
1891.027692,-25167.002028,-5181.441594,-79061.055394
1891.030246,-12879.583391,11103.089130,-73851.606007
1891.032801,-8882.471304,-296.082377,-73085.510509
1891.035355,5181.441594,6217.729913,-73545.167808
1891.037910,-15100.201217,-1628.453072,-79673.931792
1891.040464,-3849.070898,-5921.647536,-78294.959896
1891.043019,-3108.864956,2516.700203,-75690.235202
1891.045573,9326.594869,3256.906145,-69867.909418
1891.048128,11399.171507,-2812.782580,-73698.386908
1891.050682,-13027.624579,-9770.718434,-79061.055394
1891.053237,-28868.031738,3108.864956,-78907.836294
1891.055791,-23390.507767,12731.542202,-75843.454302
1891.058346,27387.619854,6513.812290,-71093.662214
1891.060869,-7402.059420,-3256.906145,-72779.072310
1891.063392,-27535.661042,4441.235652,-76149.892501
1891.065916,-21317.931130,-592.164754,-76915.987999
1891.068439,10658.965565,3108.864956,-75690.235202
1891.070962,-2072.576638,2072.576638,-78294.959896
1891.073486,-13767.830521,-5033.400406,-77528.864398
1891.076009,5477.523971,3701.029710,-69867.909418
1891.078532,27091.537477,-11843.295072,-72472.634111
1891.081056,-8438.347739,11547.212695,-75843.454302
1891.083579,8142.265362,-3256.906145,-79980.369991
1891.086102,-15248.242405,592.164754,-80440.027290
1891.088626,28868.031738,-3997.112087,-72166.195912
1891.091149,-2072.576638,1036.288319,-72166.195912
1891.093672,3701.029710,11547.212695,-74311.263306
1891.096196,-11399.171507,1628.453072,-76762.768900
1891.098719,38638.750172,-6957.935855,-73391.948708
1891.101242,15692.365970,-14359.995275,-78448.178995
1891.103766,-20725.766376,-6365.771101,-81665.780087
1891.106289,-81570.694808,2960.823768,-82738.313784
1891.108812,-8438.347739,18209.066173,-73085.510509
1891.111336,44856.480085,-5477.523971,-73238.729609
1891.113859,15692.365970,1776.494261,-74770.920605
1891.116382,14804.118840,-8290.306550,-76609.549800
1891.118906,1776.494261,9474.636058,-72012.976812
1891.121429,34789.679274,3404.947333,-69867.909418
1891.123952,-9474.636058,-148.041188,-76303.111601
1891.126476,33457.308578,-6809.894666,-74617.701505
1891.128999,-25018.960840,6217.729913,-77682.083497
1891.131522,9474.636058,8142.265362,-74770.920605
1891.134046,-28423.908173,-1628.453072,-77682.083497
1891.136569,-5773.606348,-740.205942,-74158.044206
1891.139092,-9918.759623,740.205942,-74770.920605
1891.141616,14804.118840,10362.883188,-73238.729609
1891.144139,1924.535449,-1924.535449,-76303.111601
1891.146662,5477.523971,6661.853478,-73238.729609
1891.149186,-1628.453072,-2072.576638,-72932.291410
1891.151709,37898.544230,-5921.647536,-72625.853210
1891.154232,-44708.438897,6513.812290,-81359.341888
1891.156756,-39526.997303,18505.148550,-77069.207099
1891.159279,57588.022288,-4145.153275,-69101.813920
1891.161812,4441.235652,7994.224174,-72932.291410
1891.164346,-21021.848753,-3552.988522,-75996.673402
1891.166879,-28275.866984,13471.748144,-75690.235202
1891.169412,14211.954086,8882.471304,-73085.510509
1891.171946,-6365.771101,-740.205942,-77222.426198
1891.174479,15248.242405,8290.306550,-74311.263306
1891.177013,-10807.006753,12583.501014,-74924.139704
1891.179546,148.041188,10214.842000,-74311.263306
1891.182080,10214.842000,4441.235652,-73851.606007
1891.184613,29756.278868,-2072.576638,-73391.948708
1891.187146,296.082377,1480.411884,-77375.645298
1891.189680,6513.812290,17320.819043,-75230.577904
1891.192213,1184.329507,1628.453072,-75996.673402
1891.194747,18209.066173,148.041188,-71859.757712
1891.197280,7105.977043,-888.247130,-70634.004916
1891.199813,1480.411884,13323.706956,-74770.920605
1891.202347,32865.143825,-7254.018232,-74311.263306
1891.204880,13471.748144,740.205942,-74311.263306
1891.207414,34493.596897,-13027.624579,-68948.594820
1891.209947,-7846.182985,-2664.741391,-77069.207099
1891.212481,-13175.665768,8438.347739,-77988.521696
1891.215014,5181.441594,-2072.576638,-78448.178995
1891.217547,17912.983796,-3997.112087,-75690.235202
1891.220081,15248.242405,-4145.153275,-75077.358804
1891.222614,2368.659014,13175.665768,-72932.291410
1891.225148,-4737.318029,-9178.553681,-74924.139704
1891.227681,37602.461854,3108.864956,-71553.319513
1891.230214,-21465.972318,-1924.535449,-79980.369991
1891.232748,-17320.819043,3849.070898,-77069.207099
1891.235281,-8734.430116,5181.441594,-75537.016103
1891.237815,-7550.100608,2812.782580,-72779.072310
1891.240348,10510.924376,1036.288319,-72932.291410
1891.242881,-2072.576638,4737.318029,-75230.577904
1891.245415,-6513.812290,-148.041188,-77375.645298
1891.247948,-10362.883188,148.041188,-78141.740796
1891.250482,444.123565,296.082377,-75996.673402
1891.253015,-26351.331535,19985.560434,-76303.111601
1891.255549,12287.418637,8142.265362,-74617.701505
1891.258082,3701.029710,9918.759623,-76915.987999
1891.260615,-2072.576638,5477.523971,-74311.263306
1891.263157,-592.164754,4441.235652,-73238.729609
1891.265698,-5921.647536,4737.318029,-72012.976812
1891.268239,-12731.542202,5329.482782,-74924.139704
1891.270780,-28719.990550,13767.830521,-78907.836294
1891.273321,-2960.823768,148.041188,-79061.055394
1891.275862,1776.494261,7402.059420,-73851.606007
1891.278403,19097.313304,6069.688724,-71706.538613
1891.280945,-17764.942608,7254.018232,-75537.016103
1891.283486,19097.313304,7846.182985,-73085.510509
1891.286027,16284.530724,-1480.411884,-76303.111601
1891.288568,21614.013506,6513.812290,-75077.358804
1891.291109,-10066.800811,13915.871710,-76609.549800
1891.293650,14952.160028,5773.606348,-72779.072310
1891.296192,7846.182985,-5921.647536,-72166.195912
1891.298733,12731.542202,6513.812290,-74004.825107
1891.301274,20133.601622,-3404.947333,-73851.606007
1891.303815,30940.608376,-4441.235652,-75996.673402
1891.306356,-16876.695478,2220.617826,-79214.274493
1891.308897,-35529.885216,15988.448347,-75843.454302
1891.311439,37750.503042,8438.347739,-68795.375720
1891.313980,37010.297100,4885.359217,-73238.729609
1891.316521,13027.624579,-2220.617826,-76609.549800
1891.319062,-6809.894666,4589.276840,-76303.111601
1891.321603,24426.796086,3404.947333,-72319.415011
1891.324144,15840.407159,-1332.370696,-72166.195912
1891.326686,-10658.965565,-5625.565159,-75383.797003
1891.329227,28127.825796,4589.276840,-72932.291410
1891.331768,-10214.842000,12435.459826,-75537.016103
1891.334309,12583.501014,8290.306550,-73085.510509
1891.336850,-24574.837274,-1480.411884,-76456.330700
1891.339391,-8290.306550,-888.247130,-74924.139704
1891.341933,-6809.894666,3552.988522,-73698.386908
1891.344474,18357.107362,6661.853478,-72779.072310
1891.347015,-4145.153275,3256.906145,-75537.016103
1891.349556,-10362.883188,1776.494261,-77069.207099
1891.352097,-11251.130318,5181.441594,-75537.016103
1891.354638,13027.624579,16284.530724,-69561.471218
1891.357180,32717.102636,13027.624579,-68948.594820
1891.359721,43524.109390,-3701.029710,-71706.538613
1891.362262,-23982.672521,-6217.729913,-72319.415011
1891.364810,-33605.349767,-1036.288319,-76762.768900
1891.367357,-22206.178260,4441.235652,-76303.111601
1891.369905,2812.782580,1480.411884,-73238.729609
1891.372453,-7698.141797,1924.535449,-77375.645298
1891.375001,-19541.436869,8438.347739,-80133.589091
1891.377549,-9770.718434,-2516.700203,-77222.426198
1891.380096,22058.137072,3997.112087,-70174.347617
1891.382644,18801.230927,-18209.066173,-73238.729609
1891.385192,-8734.430116,13915.871710,-74770.920605
1891.387740,7402.059420,-4293.194464,-80286.808190
1891.390287,4885.359217,-1628.453072,-76609.549800
1891.392835,24130.713709,-7698.141797,-74617.701505
1891.395383,-2960.823768,3108.864956,-74311.263306
1891.397931,-3256.906145,13175.665768,-74924.139704
1891.400478,-6661.853478,9326.594869,-75383.797003
1891.403026,47817.303853,-10807.006753,-71400.100414
1891.405574,18357.107362,-8142.265362,-77682.083497
1891.408122,-54183.074954,17468.860231,-77682.083497
1891.410670,15840.407159,11251.130318,-69101.813920
1891.413217,58328.228230,-888.247130,-68642.156621
1891.415765,13915.871710,-7698.141797,-75537.016103
1891.418313,-11695.253884,5033.400406,-76303.111601
1891.420861,16432.571912,9622.677246,-73545.167808
1891.423408,23686.590144,-5033.400406,-72932.291410
1891.425956,-11695.253884,-8586.388927,-75077.358804
1891.428504,29608.237680,2812.782580,-72779.072310
1891.431052,-40563.285622,17616.901420,-78294.959896
1891.433600,10214.842000,-4589.276840,-77835.302597
1891.436147,-12731.542202,6365.771101,-75230.577904
1891.438695,-7254.018232,-3552.988522,-74770.920605
1891.441243,-10955.047942,13767.830521,-72779.072310
1891.443791,-2664.741391,-1036.288319,-77682.083497
1891.446338,-14211.954086,-3552.988522,-76762.768900
1891.448886,-444.123565,6069.688724,-75537.016103
1891.451434,-888.247130,5181.441594,-74311.263306
1891.453982,-9030.512492,4441.235652,-77528.864398
1891.456529,-21317.931130,3256.906145,-77682.083497
1891.459077,-16432.571912,9474.636058,-77222.426198
1891.461625,27979.784608,4293.194464,-69714.690318
1891.464173,3849.070898,2220.617826,-73851.606007
1891.466726,-28423.908173,1036.288319,-75996.673402
1891.469280,-11843.295072,1036.288319,-75996.673402
1891.471833,-11547.212695,17764.942608,-75077.358804
1891.474387,-7550.100608,-4145.153275,-79980.369991
1891.476940,-13323.706956,1480.411884,-76456.330700
1891.479494,23242.466579,3108.864956,-71093.662214
1891.482048,-6809.894666,3997.112087,-75690.235202
1891.484601,8882.471304,8586.388927,-74617.701505
1891.487155,7105.977043,-4145.153275,-79673.931792
1891.489708,2072.576638,-2072.576638,-76762.768900
1891.492262,7698.141797,-1776.494261,-74924.139704
1891.494815,-4145.153275,17172.777854,-73238.729609
1891.497369,592.164754,-444.123565,-75996.673402
1891.499922,2516.700203,3849.070898,-75996.673402
1891.502476,-888.247130,-1184.329507,-77682.083497
1891.505029,-888.247130,17320.819043,-75843.454302
1891.507583,9770.718434,5921.647536,-72932.291410
1891.510136,4145.153275,9622.677246,-70327.566716
1891.512690,36714.214723,1332.370696,-72166.195912
1891.515243,1332.370696,3552.988522,-76456.330700
1891.517797,15544.324782,-148.041188,-75690.235202
1891.520350,7105.977043,3997.112087,-74311.263306
1891.522904,23686.590144,0.000000,-72472.634111
1891.525457,-8586.388927,-5329.482782,-74770.920605
1891.528011,35825.967593,6513.812290,-72625.853210
1891.530565,-39971.120868,2368.659014,-82125.437386
1891.533118,-7846.182985,-740.205942,-77528.864398
1891.535672,-1924.535449,5181.441594,-74158.044206
1891.538225,-1924.535449,4589.276840,-72166.195912
1891.540779,-11991.336260,7254.018232,-75383.797003
1891.543332,-17616.901420,5033.400406,-78448.178995
1891.545886,148.041188,-7846.182985,-76456.330700
1891.548439,-1776.494261,148.041188,-75996.673402
1891.550993,-4737.318029,1332.370696,-76303.111601
1891.553546,-30200.402434,23538.548956,-75996.673402
1891.556100,9030.512492,-2812.782580,-75077.358804
1891.558653,19689.478057,-7994.224174,-75843.454302
1891.561207,-32124.937883,4441.235652,-79061.055394
1891.563760,-13767.830521,8142.265362,-74311.263306
1891.566314,-5033.400406,6661.853478,-72472.634111
1891.568871,10955.047942,-13175.665768,-74004.825107
1891.571429,-35825.967593,8734.430116,-78907.836294
1891.573986,-11103.089130,10955.047942,-78907.836294
1891.576544,-5181.441594,-2812.782580,-77835.302597
1891.579101,18801.230927,1332.370696,-70787.224015
1891.581659,27239.578666,-19097.313304,-72012.976812
1891.584216,444.123565,12287.418637,-73391.948708
1891.586774,13323.706956,-592.164754,-78141.740796
1891.589331,740.205942,-1776.494261,-77069.207099
1891.591889,14508.036463,-11103.089130,-75383.797003
1891.594446,-4145.153275,10658.965565,-73085.510509
1891.597004,-3997.112087,5625.565159,-74311.263306
1891.599561,-5181.441594,10510.924376,-76915.987999
1891.602119,-1628.453072,7698.141797,-75537.016103
1891.604677,35825.967593,13767.830521,-70940.443115
1891.607234,47965.345042,-6957.935855,-67416.403824
1891.609792,65434.205273,-592.164754,-65424.555529
1891.612349,24574.837274,-2072.576638,-73851.606007
1891.614907,-888.247130,9622.677246,-75690.235202
1891.617464,-7550.100608,6365.771101,-78141.740796
1891.620022,27535.661042,6809.894666,-74924.139704
1891.622579,2220.617826,2516.700203,-76303.111601
1891.625137,-15988.448347,2220.617826,-76915.987999
1891.627694,25907.207970,3108.864956,-71246.881314
1891.630252,17172.777854,-1628.453072,-72625.853210
1891.632809,-11251.130318,-5033.400406,-79520.712692
1891.635367,-35233.802839,3701.029710,-80133.589091
1891.637924,-14656.077652,-888.247130,-78141.740796
1891.640482,8734.430116,0.000000,-72012.976812
1891.643040,21762.054695,7402.059420,-70787.224015
1891.645597,-5477.523971,7846.182985,-75077.358804
1891.648155,-13175.665768,-5477.523971,-78141.740796
1891.650712,-9030.512492,-3849.070898,-78601.398095
1891.653270,-26351.331535,18505.148550,-75690.235202
1891.655827,3701.029710,8586.388927,-75690.235202
1891.658385,-11251.130318,9326.594869,-76456.330700
1891.660942,3108.864956,7105.977043,-74464.482406
1891.663500,-13767.830521,6217.729913,-73238.729609
1891.666057,3701.029710,5477.523971,-73238.729609
1891.668615,-19837.519246,10658.965565,-77222.426198
1891.671176,-25907.207970,7402.059420,-79061.055394
1891.673737,7254.018232,-1628.453072,-76915.987999
1891.676298,20577.725188,6217.729913,-71400.100414
1891.678859,-12287.418637,3552.988522,-75996.673402
1891.681420,1332.370696,14508.036463,-73391.948708
1891.683981,17764.942608,-9326.594869,-76762.768900
1891.686541,31680.814318,7550.100608,-71859.757712
1891.689102,-1036.288319,10807.006753,-76303.111601
1891.691663,3701.029710,10658.965565,-74311.263306
1891.694224,14952.160028,-13323.706956,-73698.386908
1891.696785,9178.553681,7402.059420,-72932.291410
1891.699346,-16432.571912,-1776.494261,-77682.083497
1891.701907,-50482.045244,5625.565159,-86109.133975
1891.704468,-70319.564490,27387.619854,-81665.780087
1891.707029,51666.374752,16432.571912,-61594.078039
1891.709590,96226.772460,-7254.018232,-65577.774629
1891.712151,6365.771101,-3552.988522,-74464.482406
1891.714712,-15692.365970,7402.059420,-76303.111601
1891.717273,11991.336260,11843.295072,-74464.482406
1891.719834,30496.484810,-7846.182985,-75843.454302
1891.722395,-24722.878463,-1480.411884,-77069.207099
1891.724956,18209.066173,11843.295072,-73851.606007
1891.727517,-31384.731941,14359.995275,-76609.549800
1891.730077,19393.395680,-16284.530724,-76456.330700
1891.732638,-14804.118840,-8438.347739,-77528.864398
1891.735199,-18653.189738,-8882.471304,-77069.207099
1891.737760,-19245.354492,7994.224174,-75843.454302
1891.740321,14508.036463,11991.336260,-72932.291410
1891.742882,-3404.947333,-6809.894666,-75537.016103
1891.745443,-592.164754,-7105.977043,-74004.825107
1891.748004,2812.782580,5033.400406,-73851.606007
1891.750565,14211.954086,1776.494261,-75537.016103
1891.753126,-7698.141797,296.082377,-76762.768900
1891.755687,-11103.089130,-6957.935855,-77988.521696
1891.758248,-23538.548956,8142.265362,-76456.330700
1891.760809,10510.924376,2664.741391,-73391.948708
1891.763370,-7105.977043,5181.441594,-73698.386908
1891.765931,-7994.224174,15544.324782,-75996.673402
1891.768492,-23094.425390,-148.041188,-80593.246390
1891.771053,11103.089130,7846.182985,-73391.948708
1891.773616,15100.201217,5477.523971,-72472.634111
1891.776180,-8142.265362,11103.089130,-75230.577904
1891.778744,13767.830521,592.164754,-74770.920605
1891.781308,19393.395680,-1184.329507,-74770.920605
1891.783872,23982.672521,4885.359217,-73698.386908
1891.786436,2072.576638,13471.748144,-75537.016103
1891.789000,12435.459826,-2664.741391,-75230.577904
1891.791564,5773.606348,-5329.482782,-73698.386908
1891.794128,4589.276840,444.123565,-75996.673402
1891.796692,-15100.201217,3849.070898,-79214.274493
1891.799256,-1776.494261,14063.912898,-76915.987999
1891.801820,17912.983796,-1480.411884,-74924.139704
1891.804384,-10362.883188,7254.018232,-73698.386908
1891.806948,15396.283594,5625.565159,-73545.167808
1891.809512,13323.706956,7846.182985,-75077.358804
1891.812076,14211.954086,-2812.782580,-77528.864398
1891.814639,7254.018232,5329.482782,-76303.111601
1891.817203,17172.777854,3997.112087,-73851.606007
1891.819767,-6069.688724,-5181.441594,-73545.167808
1891.822331,42191.738694,2812.782580,-70327.566716
1891.824895,0.000000,-444.123565,-74158.044206
1891.827459,-5477.523971,4737.318029,-77528.864398
1891.830023,-33753.390955,-1036.288319,-80593.246390
1891.832587,-10510.924376,-444.123565,-74770.920605
1891.835151,7846.182985,4589.276840,-72012.976812
1891.837715,5921.647536,4293.194464,-74464.482406
1891.840279,-18061.024985,-3997.112087,-77988.521696
1891.842843,4145.153275,-9178.553681,-74004.825107
1891.845407,19097.313304,-1184.329507,-74311.263306
1891.847971,-15396.283594,1924.535449,-78294.959896
1891.850535,-35529.885216,13323.706956,-78294.959896
1891.853098,11251.130318,0.000000,-72779.072310
1891.855662,24870.919651,10066.800811,-71400.100414
1891.858226,-2368.659014,3701.029710,-71859.757712
1891.860790,-5921.647536,-12139.377449,-75690.235202
1891.863354,-35381.844028,10807.006753,-77682.083497
1891.865918,3849.070898,1184.329507,-77375.645298
1891.868482,-7994.224174,-6217.729913,-77528.864398
1891.871046,20133.601622,2960.823768,-72932.291410
1891.873610,-11251.130318,1628.453072,-75383.797003
1891.876176,9622.677246,14508.036463,-73085.510509
1891.878742,16580.613101,-14804.118840,-77682.083497
1891.881308,11991.336260,296.082377,-75537.016103
1891.883874,12287.418637,-7254.018232,-75383.797003
1891.886439,-9474.636058,15544.324782,-74158.044206
1891.889005,4737.318029,3997.112087,-74924.139704
1891.891571,-444.123565,1036.288319,-75843.454302
1891.894137,-19985.560434,3404.947333,-79980.369991
1891.896703,-5033.400406,19985.560434,-75077.358804
1891.899269,18357.107362,14211.954086,-69408.252119
1891.901835,69727.399736,-2368.659014,-64352.021832
1891.904401,13619.789333,-3997.112087,-74617.701505
1891.906967,-2220.617826,15396.283594,-75690.235202
1891.909532,-3108.864956,5773.606348,-77528.864398
1891.912098,35825.967593,5329.482782,-74004.825107
1891.914664,-2960.823768,-6809.894666,-73545.167808
1891.917230,8142.265362,10066.800811,-74770.920605
1891.919796,-45448.644839,11991.336260,-79520.712692
1891.922362,11547.212695,8290.306550,-72472.634111
1891.924928,22502.260637,2516.700203,-72472.634111
1891.927494,-23242.466579,10066.800811,-75996.673402
1891.930059,-25463.084405,6069.688724,-78448.178995
1891.932625,-8438.347739,-1184.329507,-74924.139704
1891.935191,25018.960840,148.041188,-71093.662214
1891.937757,4737.318029,12879.583391,-71400.100414
1891.940323,-1184.329507,8438.347739,-73698.386908
1891.942889,33309.267390,-17468.860231,-72779.072310
1891.945455,9030.512492,4441.235652,-73698.386908
1891.948021,-7402.059420,10362.883188,-74617.701505
1891.950587,8734.430116,12731.542202,-73545.167808
1891.953152,-11695.253884,8882.471304,-73238.729609
1891.955718,-2960.823768,3701.029710,-75690.235202
1891.958284,-22354.219448,16284.530724,-75690.235202
1891.960850,-7402.059420,6513.812290,-75996.673402
1891.963416,14508.036463,4441.235652,-73391.948708
1891.965982,13323.706956,6513.812290,-74924.139704
1891.968548,-16728.654289,6957.935855,-77069.207099
1891.971114,28571.949361,8142.265362,-70327.566716
1891.973680,20429.683999,740.205942,-73238.729609
1891.976245,38046.585419,9326.594869,-73085.510509
1891.978812,6069.688724,6661.853478,-75690.235202
1891.981379,1924.535449,10510.924376,-74464.482406
1891.983946,9622.677246,-10955.047942,-73391.948708
1891.986512,6661.853478,5921.647536,-71246.881314
1891.989079,12731.542202,-11547.212695,-78907.836294
1891.991646,-36714.214723,1332.370696,-85036.600278
1891.994213,-73428.429446,22058.137072,-83197.971083
1891.996780,28127.825796,20429.683999,-63892.364533
1891.999346,86752.136402,-4737.318029,-65730.993728
1892.001913,14508.036463,-9770.718434,-73851.606007
1892.004480,-6365.771101,4441.235652,-77375.645298
1892.007047,-5773.606348,5329.482782,-74924.139704
1892.009613,37750.503042,7698.141797,-70021.128517
1892.012180,2812.782580,-444.123565,-76915.987999
1892.014747,592.164754,4589.276840,-73851.606007
1892.017314,-22502.260637,6809.894666,-74158.044206
1892.019880,29016.072926,15544.324782,-72166.195912
1892.022447,-23982.672521,-3997.112087,-78754.617194
1892.025014,-8438.347739,-1776.494261,-76456.330700
1892.027581,-19837.519246,-3108.864956,-76915.987999
1892.030147,26055.249158,8290.306550,-70327.566716
1892.032714,-5033.400406,5625.565159,-75537.016103
1892.035281,-6957.935855,-5033.400406,-76149.892501
1892.037848,-29460.196492,3997.112087,-79520.712692
1892.040414,-17764.942608,148.041188,-78754.617194
1892.042981,-14656.077652,3552.988522,-76456.330700
1892.045548,1776.494261,17468.860231,-72166.195912
1892.048115,3108.864956,-148.041188,-73545.167808
1892.050681,-21169.889941,10807.006753,-74924.139704
1892.053248,-13471.748144,11399.171507,-76762.768900
1892.055815,-10807.006753,3997.112087,-76303.111601
1892.058382,20281.642811,592.164754,-74311.263306
1892.060948,-3256.906145,8290.306550,-75383.797003
1892.063515,1184.329507,8734.430116,-74617.701505
1892.066082,22354.219448,1480.411884,-73085.510509
1892.068649,12731.542202,-5921.647536,-76456.330700
1892.071215,16136.489536,3701.029710,-75383.797003
1892.073782,5329.482782,17172.777854,-74004.825107
1892.076349,14359.995275,4885.359217,-74464.482406
1892.078916,3552.988522,-5329.482782,-73545.167808
1892.081483,1184.329507,-2664.741391,-73851.606007
1892.084051,-14211.954086,4885.359217,-80286.808190
1892.086619,-10066.800811,8142.265362,-77835.302597
1892.089186,17912.983796,-6069.688724,-76303.111601
1892.091754,-9326.594869,4293.194464,-74464.482406
1892.094321,4441.235652,1776.494261,-74311.263306
1892.096889,13175.665768,8290.306550,-74004.825107
1892.099457,20281.642811,-592.164754,-76303.111601
1892.102024,20873.807564,-296.082377,-76149.892501
1892.104592,9326.594869,5921.647536,-72932.291410
1892.107160,8290.306550,8142.265362,-74770.920605
1892.109727,-26351.331535,11547.212695,-76303.111601
1892.112295,6661.853478,-2368.659014,-73545.167808
1892.114862,14063.912898,11251.130318,-73238.729609
1892.117430,-18357.107362,7254.018232,-78141.740796
1892.119998,-21614.013506,7402.059420,-77069.207099
1892.122565,-2960.823768,-6957.935855,-74311.263306
1892.125133,21910.095883,2220.617826,-70480.785816
1892.127700,-1924.535449,12879.583391,-75230.577904
1892.130268,2960.823768,2368.659014,-76149.892501
1892.132836,-30348.443622,-1480.411884,-80746.465489
1892.135403,-10510.924376,-1480.411884,-75077.358804
1892.137971,34789.679274,-3404.947333,-70940.443115
1892.140539,11103.089130,-5773.606348,-73238.729609
1892.143106,-38638.750172,4589.276840,-78141.740796
1892.145674,-16580.613101,-1332.370696,-77069.207099
1892.148241,-11843.295072,18061.024985,-74617.701505
1892.150809,-10066.800811,1480.411884,-79061.055394
1892.153377,-18357.107362,1036.288319,-78907.836294
1892.155944,18505.148550,1036.288319,-73545.167808
1892.158512,-2960.823768,9622.677246,-74617.701505
1892.161080,13027.624579,8882.471304,-72625.853210
1892.163647,8882.471304,-5033.400406,-78448.178995
1892.166215,5033.400406,-4441.235652,-77222.426198
1892.168782,8734.430116,-2072.576638,-75077.358804
1892.171350,1628.453072,14656.077652,-73238.729609
1892.173918,740.205942,1924.535449,-76456.330700
1892.176485,444.123565,-5921.647536,-75077.358804
1892.179053,-12583.501014,-4885.359217,-81512.560987
1892.181620,-24278.754898,15988.448347,-79673.931792
1892.184189,-4589.276840,16580.613101,-73391.948708
1892.186757,55515.445650,5773.606348,-64964.898230
1892.189326,33901.432144,-6957.935855,-73391.948708
1892.191894,11399.171507,-2664.741391,-75537.016103
1892.194463,740.205942,-296.082377,-77222.426198
1892.197031,15396.283594,9918.759623,-73391.948708
1892.199600,12879.583391,-15248.242405,-74464.482406
1892.202168,32272.979071,1776.494261,-70480.785816
1892.204736,-42487.821071,2960.823768,-78448.178995
1892.207305,-16876.695478,4737.318029,-78601.398095
1892.209873,-592.164754,-148.041188,-77835.302597
1892.212442,-8734.430116,-296.082377,-75537.016103
1892.215010,-10362.883188,9918.759623,-74924.139704
1892.217579,-13619.789333,9030.512492,-77069.207099
1892.220147,-1628.453072,-6069.688724,-75077.358804
1892.222716,4441.235652,-444.123565,-73391.948708
1892.225284,33605.349767,-7846.182985,-73238.729609
1892.227852,-12287.418637,-5773.606348,-76915.987999
1892.230421,-7402.059420,-8290.306550,-76915.987999
1892.232989,-19097.313304,-5773.606348,-78907.836294
1892.235558,-19985.560434,4737.318029,-74158.044206
1892.238126,-1628.453072,9326.594869,-72472.634111
1892.240695,-2516.700203,8290.306550,-74311.263306
1892.243263,-13175.665768,-2516.700203,-76762.768900
1892.245832,11695.253884,6809.894666,-72472.634111
1892.248400,-1480.411884,2516.700203,-76609.549800
1892.250968,4145.153275,7698.141797,-73698.386908
1892.253537,24722.878463,4589.276840,-72779.072310
1892.256105,14952.160028,-1480.411884,-74004.825107
1892.258674,34049.473332,6069.688724,-73085.510509
1892.261242,-1332.370696,14804.118840,-75690.235202
1892.263811,18949.272115,296.082377,-73545.167808
1892.266379,5181.441594,-9178.553681,-73851.606007
1892.268948,4293.194464,5921.647536,-72012.976812
1892.271516,18949.272115,-1776.494261,-71400.100414
1892.274084,33457.308578,-11251.130318,-78448.178995
1892.276653,-61733.175563,18357.107362,-83044.751983
1892.279221,-8290.306550,20873.807564,-71553.319513
1892.281790,66322.452403,11991.336260,-66037.431928
1892.284358,27535.661042,-4293.194464,-72779.072310
1892.286927,14063.912898,-6809.894666,-75690.235202
1892.289495,592.164754,8290.306550,-75690.235202
1892.292063,22650.301825,-740.205942,-72012.976812
1892.294632,36566.173535,-1036.288319,-71246.881314
1892.297200,-39971.120868,3552.988522,-78294.959896
1892.299768,-31384.731941,1924.535449,-77835.302597
1892.302337,15988.448347,13175.665768,-72319.415011
1892.304905,-3701.029710,6661.853478,-74311.263306
1892.307474,-10510.924376,10658.965565,-76303.111601
1892.310042,-30348.443622,-3701.029710,-78907.836294
1892.312610,9326.594869,-6513.812290,-72625.853210
1892.315179,-1924.535449,-148.041188,-75230.577904
1892.317747,-14508.036463,18505.148550,-75077.358804
1892.320315,12583.501014,10510.924376,-74924.139704
1892.322884,5181.441594,6957.935855,-73851.606007
1892.325452,27387.619854,-9770.718434,-72779.072310
1892.328021,-22650.301825,7105.977043,-75690.235202
1892.330589,-19245.354492,11399.171507,-74770.920605
1892.333157,-17320.819043,11251.130318,-75537.016103
1892.335726,10066.800811,-2960.823768,-74770.920605
1892.338294,1036.288319,4145.153275,-75537.016103
1892.340862,-2960.823768,8142.265362,-77222.426198
1892.343431,-7254.018232,3404.947333,-75690.235202
