#time,accel_x,accel_y,accel_z
544.449751,5773.606348,740.205942,-73391.948708
544.452117,5773.606348,148.041188,-73698.386908
544.454483,2812.782580,1184.329507,-73698.386908
544.456850,2516.700203,1184.329507,-74617.701505
544.459216,148.041188,2812.782580,-75077.358804
544.461583,1036.288319,2960.823768,-74004.825107
544.463949,3701.029710,740.205942,-74617.701505
544.466315,-11843.295072,10362.883188,-76609.549800
544.468682,-19837.519246,25315.043216,-74158.044206
544.471048,44412.356520,5773.606348,-66650.308326
544.473414,27091.537477,-19837.519246,-72625.853210
544.475781,3108.864956,-17024.736666,-74770.920605
544.478147,-10362.883188,1036.288319,-73851.606007
544.480513,444.123565,13471.748144,-73238.729609
544.482880,-6661.853478,-6661.853478,-77528.864398
544.485246,7105.977043,6957.935855,-76303.111601
544.487612,-2812.782580,-296.082377,-73851.606007
544.489979,12583.501014,10362.883188,-73085.510509
544.492345,-1776.494261,1184.329507,-73851.606007
544.494711,-2960.823768,-296.082377,-75077.358804
544.497078,12583.501014,-11103.089130,-75996.673402
544.499444,1332.370696,13323.706956,-74617.701505
544.501810,3997.112087,-148.041188,-75537.016103
544.504177,-4293.194464,-3849.070898,-75537.016103
544.506543,18801.230927,2516.700203,-71400.100414
544.508909,4441.235652,11695.253884,-73851.606007
544.511353,7105.977043,296.082377,-75537.016103
544.513797,7994.224174,-9178.553681,-75690.235202
544.516241,2812.782580,-4145.153275,-76915.987999
544.518685,1332.370696,5033.400406,-72932.291410
544.521128,11251.130318,12583.501014,-70940.443115
544.523572,34937.720462,-16284.530724,-69408.252119
544.526016,4441.235652,-22354.219448,-78907.836294
544.528460,-41747.615129,11399.171507,-82278.656485
544.530904,-14952.160028,23094.425390,-74158.044206
544.533347,34937.720462,16580.613101,-62666.611736
544.535791,82458.941939,-29756.278868,-64658.460031
544.538235,-40119.162056,-16580.613101,-85649.476676
544.540679,-33901.432144,1628.453072,-83810.847481
544.543123,12879.583391,25018.960840,-70940.443115
544.545566,46929.056723,12583.501014,-66037.431928
544.548010,19837.519246,-16876.695478,-73238.729609
544.550454,-18653.189738,0.000000,-78141.740796
544.552898,-23834.631332,5329.482782,-77682.083497
544.555342,23686.590144,2812.782580,-72472.634111
544.557785,14804.118840,-5033.400406,-74158.044206
544.560229,8290.306550,8734.430116,-74311.263306
544.562673,-19097.313304,5329.482782,-77835.302597
544.565117,12583.501014,-10658.965565,-74924.139704
544.567561,11399.171507,-3701.029710,-73238.729609
544.570004,-1480.411884,15544.324782,-75383.797003
544.572448,-1480.411884,3849.070898,-77222.426198
544.574892,740.205942,13175.665768,-75537.016103
544.577336,11251.130318,-3701.029710,-72319.415011
544.579780,592.164754,-8290.306550,-73545.167808
544.582223,-2220.617826,9326.594869,-72779.072310
544.584667,-2072.576638,-888.247130,-75077.358804
544.587111,-4885.359217,296.082377,-75537.016103
544.589555,-10807.006753,2664.741391,-76915.987999
544.591999,5033.400406,8142.265362,-72472.634111
544.594442,11991.336260,-3997.112087,-73085.510509
544.596886,-15988.448347,-888.247130,-74924.139704
544.599330,4145.153275,3849.070898,-74158.044206
544.601774,7254.018232,4589.276840,-73238.729609
544.604218,16728.654289,3701.029710,-73085.510509
544.606661,-19689.478057,7105.977043,-76609.549800
544.609154,-8882.471304,4441.235652,-75843.454302
544.611650,-2664.741391,-5625.565159,-74924.139704
544.614146,13767.830521,2516.700203,-73238.729609
544.616642,-1480.411884,12731.542202,-72932.291410
544.619138,13323.706956,-592.164754,-71706.538613
544.621634,15544.324782,-5921.647536,-75077.358804
544.624130,-15248.242405,18061.024985,-72472.634111
544.626626,53886.992578,-18209.066173,-68335.718422
544.629122,1924.535449,-1184.329507,-75383.797003
544.631618,-5625.565159,2960.823768,-76915.987999
544.634114,10214.842000,-1776.494261,-74158.044206
544.636610,-3256.906145,592.164754,-74617.701505
544.639106,-5181.441594,-3108.864956,-75383.797003
544.641602,-14211.954086,7402.059420,-75996.673402
544.644098,23538.548956,-5773.606348,-72779.072310
544.646594,-3701.029710,-7105.977043,-76149.892501
544.649090,-6513.812290,9770.718434,-76609.549800
544.651586,-5477.523971,3256.906145,-75537.016103
544.654082,21910.095883,-1480.411884,-73085.510509
544.656578,-27831.743419,-7550.100608,-77375.645298
544.659074,9030.512492,14804.118840,-72779.072310
544.661570,9178.553681,-6069.688724,-72779.072310
544.664066,2220.617826,-2072.576638,-72779.072310
544.666562,-148.041188,-5181.441594,-76303.111601
544.669058,-33309.267390,592.164754,-79214.274493
544.671554,16580.613101,5921.647536,-72625.853210
544.674050,14952.160028,10066.800811,-71553.319513
544.676546,3108.864956,-8586.388927,-77375.645298
544.679042,740.205942,3108.864956,-74924.139704
544.681538,10362.883188,-3256.906145,-73545.167808
544.684034,7105.977043,8142.265362,-74158.044206
544.686530,-9474.636058,3997.112087,-74617.701505
544.689026,5773.606348,5329.482782,-74004.825107
544.691521,3997.112087,-3404.947333,-75537.016103
544.694017,8290.306550,1924.535449,-73851.606007
544.696513,444.123565,-3256.906145,-76149.892501
544.699009,-3997.112087,1332.370696,-74924.139704
544.701505,13619.789333,2960.823768,-72472.634111
544.704001,13471.748144,8586.388927,-73545.167808
544.706497,5921.647536,-11843.295072,-77375.645298
544.709024,-19245.354492,9622.677246,-79061.055394
544.711552,6809.894666,11695.253884,-73545.167808
544.714079,17764.942608,10066.800811,-68948.594820
544.716606,59512.557737,-16580.613101,-68029.280222
544.719133,-3701.029710,-13619.789333,-79061.055394
544.721660,-28127.825796,3701.029710,-79673.931792
544.724187,5181.441594,12731.542202,-70021.128517
544.726714,41747.615129,20429.683999,-65271.336430
544.729241,45004.521274,-16876.695478,-67722.842023
544.731768,2812.782580,-12879.583391,-77528.864398
544.734295,-19985.560434,-5033.400406,-79367.493593
544.736822,26499.372724,14211.954086,-71706.538613
544.739349,26203.290347,-9326.594869,-71246.881314
544.741876,-740.205942,3552.988522,-74617.701505
544.744404,-26795.455100,-5773.606348,-78754.617194
544.746931,6217.729913,7698.141797,-74004.825107
544.749458,39082.873738,-1332.370696,-69714.690318
544.751985,3256.906145,7254.018232,-75230.577904
544.754512,-15692.365970,-6365.771101,-75537.016103
544.757039,-15692.365970,-6365.771101,-77375.645298
544.759566,9030.512492,-1332.370696,-74617.701505
544.762093,12287.418637,6217.729913,-72625.853210
544.764620,13323.706956,11251.130318,-74158.044206
544.767147,-3256.906145,-3849.070898,-75996.673402
544.769674,-4737.318029,-9474.636058,-74770.920605
544.772201,11695.253884,10955.047942,-70021.128517
544.774729,-13027.624579,-296.082377,-76149.892501
544.777256,-26943.496289,5329.482782,-78601.398095
544.779783,-296.082377,2368.659014,-75537.016103
544.782310,18801.230927,8290.306550,-72472.634111
544.784837,-10214.842000,-4441.235652,-76303.111601
544.787364,-21021.848753,-4737.318029,-76149.892501
544.789891,1776.494261,1628.453072,-73545.167808
544.792418,13027.624579,5477.523971,-72166.195912
544.794945,-10658.965565,14359.995275,-76915.987999
544.797472,-8438.347739,-5921.647536,-76915.987999
544.799999,4145.153275,-6217.729913,-72625.853210
544.802526,7994.224174,4293.194464,-70174.347617
544.805053,1776.494261,3552.988522,-72779.072310
544.807581,16580.613101,-1776.494261,-71859.757712
544.810129,38638.750172,-29016.072926,-73851.606007
544.812677,-48705.550984,3849.070898,-82431.875585
544.815225,-28868.031738,10658.965565,-78907.836294
544.817774,12879.583391,-12287.418637,-74770.920605
544.820322,9030.512492,-11547.212695,-76149.892501
544.822870,-32421.020260,12731.542202,-80593.246390
544.825419,-4885.359217,11399.171507,-75230.577904
544.827967,6217.729913,8882.471304,-71246.881314
544.830515,-2368.659014,-12139.377449,-75843.454302
544.833063,-37602.461854,8142.265362,-78907.836294
544.835612,5625.565159,5773.606348,-75996.673402
544.838160,12139.377449,-3108.864956,-74158.044206
544.840708,6661.853478,-1924.535449,-75230.577904
544.843256,-18801.230927,13027.624579,-75230.577904
544.845805,296.082377,-2072.576638,-74617.701505
544.848353,-5477.523971,-1628.453072,-77069.207099
544.850901,-3404.947333,9030.512492,-75537.016103
544.853450,-7846.182985,7698.141797,-75690.235202
544.855998,18653.189738,10214.842000,-74158.044206
544.858546,-19985.560434,-13915.871710,-78141.740796
544.861094,14804.118840,-5181.441594,-73085.510509
544.863643,888.247130,4441.235652,-73851.606007
544.866191,19541.436869,10362.883188,-73391.948708
544.868739,-11843.295072,-3552.988522,-76456.330700
544.871288,30052.361245,4145.153275,-71859.757712
544.873836,-1776.494261,-14804.118840,-74770.920605
544.876384,-8882.471304,13323.706956,-74770.920605
544.878932,-15396.283594,2812.782580,-76303.111601
544.881481,13027.624579,5773.606348,-74924.139704
544.884029,11103.089130,-296.082377,-73085.510509
544.886577,14508.036463,888.247130,-73698.386908
544.889126,-17616.901420,-3404.947333,-77988.521696
544.891674,7846.182985,3552.988522,-73545.167808
544.894222,18061.024985,7402.059420,-70480.785816
544.896770,15396.283594,10807.006753,-74924.139704
544.899319,148.041188,-21614.013506,-78601.398095
544.901867,-7105.977043,-8734.430116,-77988.521696
544.904415,-31828.855506,27831.743419,-75077.358804
544.906964,57439.981099,6661.853478,-66343.870127
544.909512,13471.748144,-8586.388927,-71553.319513
544.912074,39675.038491,-7698.141797,-68795.375720
544.914637,5773.606348,-15100.201217,-77682.083497
544.917200,-34345.555709,3997.112087,-78294.959896
544.919762,30644.525999,148.041188,-70174.347617
544.922325,23538.548956,5625.565159,-71400.100414
544.924888,4737.318029,-8734.430116,-78754.617194
544.927450,-16284.530724,7994.224174,-77528.864398
544.930013,6513.812290,-5033.400406,-74311.263306
544.932576,21614.013506,8586.388927,-68795.375720
544.935138,13915.871710,1480.411884,-72932.291410
544.937701,-24870.919651,-3552.988522,-79673.931792
544.940264,2072.576638,-10510.924376,-78141.740796
544.942826,-10807.006753,-444.123565,-76149.892501
544.945389,11399.171507,6957.935855,-72472.634111
544.947951,21614.013506,10658.965565,-70174.347617
544.950514,10066.800811,-3701.029710,-74770.920605
544.953077,-8734.430116,-12583.501014,-78601.398095
544.955639,-15248.242405,10658.965565,-75230.577904
544.958202,13175.665768,11103.089130,-72319.415011
544.960765,-16136.489536,-4589.276840,-76456.330700
544.963327,-15248.242405,4293.194464,-75843.454302
544.965890,8882.471304,1776.494261,-73545.167808
544.968453,12583.501014,3701.029710,-74770.920605
544.971015,-14359.995275,-4885.359217,-76609.549800
544.973578,8734.430116,740.205942,-72319.415011
544.976141,5625.565159,6513.812290,-72166.195912
544.978703,-2516.700203,0.000000,-75383.797003
544.981266,-11399.171507,-9030.512492,-77835.302597
544.983829,-1628.453072,9326.594869,-75690.235202
544.986391,-5477.523971,15396.283594,-73238.729609
544.988954,-5773.606348,-4737.318029,-74770.920605
544.991516,740.205942,-11103.089130,-74464.482406
544.994079,25463.084405,-8438.347739,-72932.291410
544.996642,-13767.830521,-3108.864956,-78141.740796
544.999204,-27979.784608,13323.706956,-79061.055394
545.001767,-1332.370696,8290.306550,-73851.606007
545.004330,-16876.695478,9326.594869,-77835.302597
545.006892,-15396.283594,16136.489536,-73851.606007
545.009455,13915.871710,8734.430116,-72779.072310
545.012018,-4293.194464,-7994.224174,-75077.358804
545.014590,-3404.947333,-16136.489536,-75383.797003
545.017163,-15396.283594,6365.771101,-75230.577904
545.019735,2812.782580,15248.242405,-73238.729609
545.022307,-4737.318029,-8734.430116,-77528.864398
545.024880,5477.523971,-5033.400406,-76303.111601
545.027452,-1332.370696,13915.871710,-73085.510509
545.030025,9326.594869,9474.636058,-73391.948708
545.032597,-15100.201217,-6661.853478,-77069.207099
545.035169,-26943.496289,6217.729913,-77528.864398
545.037742,-4293.194464,2368.659014,-74311.263306
545.040314,23538.548956,11103.089130,-71553.319513
545.042887,-10658.965565,-12287.418637,-77375.645298
545.045459,-5477.523971,-6661.853478,-77069.207099
545.048032,5181.441594,9178.553681,-73391.948708
545.050604,22650.301825,5329.482782,-72932.291410
545.053176,-3701.029710,-1332.370696,-75996.673402
545.055749,18061.024985,1036.288319,-73698.386908
545.058321,1184.329507,-6217.729913,-74770.920605
545.060894,-13175.665768,10510.924376,-75843.454302
545.063466,-2664.741391,7254.018232,-74617.701505
545.066039,12435.459826,740.205942,-74770.920605
545.068611,18061.024985,3701.029710,-73391.948708
545.071183,0.000000,-7550.100608,-76609.549800
545.073756,-11991.336260,2516.700203,-77069.207099
545.076328,19245.354492,3404.947333,-70940.443115
545.078901,17616.901420,9474.636058,-73698.386908
545.081473,-4441.235652,-8734.430116,-77222.426198
545.084046,3404.947333,-13323.706956,-76303.111601
545.086618,4589.276840,-7550.100608,-77528.864398
545.089190,-25611.125593,11695.253884,-79214.274493
545.091763,-11547.212695,14656.077652,-75537.016103
545.094335,13767.830521,5181.441594,-73085.510509
545.096908,-23538.548956,-4293.194464,-73391.948708
545.099480,-31236.690752,11547.212695,-80746.465489
545.102053,12139.377449,4145.153275,-75996.673402
545.104625,9918.759623,5773.606348,-74770.920605
545.107197,13619.789333,-3552.988522,-75077.358804
545.109770,-9770.718434,2368.659014,-75843.454302
545.112342,11399.171507,3552.988522,-75383.797003
545.114915,-13619.789333,-740.205942,-76303.111601
545.117491,18505.148550,4589.276840,-73085.510509
545.120068,444.123565,4589.276840,-73391.948708
545.122645,15988.448347,-6661.853478,-74770.920605
545.125221,-10510.924376,-2664.741391,-76609.549800
545.127798,2072.576638,3701.029710,-74464.482406
545.130374,3108.864956,3997.112087,-75077.358804
545.132951,26351.331535,13175.665768,-70327.566716
545.135528,17468.860231,-12583.501014,-73391.948708
545.138104,-22502.260637,-3404.947333,-76456.330700
545.140681,592.164754,5329.482782,-73698.386908
545.143257,-10362.883188,2220.617826,-74924.139704
545.145834,-9770.718434,7846.182985,-76149.892501
545.148411,-3701.029710,1628.453072,-76303.111601
545.150987,7846.182985,4293.194464,-75230.577904
545.153564,-14508.036463,-2664.741391,-75537.016103
545.156140,19097.313304,4885.359217,-70940.443115
545.158717,148.041188,2368.659014,-72472.634111
545.161294,-2812.782580,4145.153275,-74770.920605
545.163870,-9622.677246,-10510.924376,-77835.302597
545.166447,-10658.965565,14804.118840,-77069.207099
545.169023,3256.906145,8142.265362,-72625.853210
545.171600,-2368.659014,3552.988522,-74311.263306
545.174177,-13027.624579,1924.535449,-78754.617194
545.176753,-20873.807564,23242.466579,-74924.139704
545.179330,23982.672521,3404.947333,-68795.375720
545.181907,34493.596897,-16580.613101,-70174.347617
545.184483,-19541.436869,3849.070898,-79367.493593
545.187060,-19245.354492,19097.313304,-76303.111601
545.189636,43524.109390,-7550.100608,-67876.061123
545.192213,3404.947333,-296.082377,-73391.948708
545.194790,-25018.960840,6957.935855,-77835.302597
545.197366,-17616.901420,888.247130,-75537.016103
545.199943,3552.988522,6365.771101,-72472.634111
545.202519,14656.077652,-2368.659014,-73698.386908
545.205096,-148.041188,2812.782580,-77069.207099
545.207673,-21762.054695,-5477.523971,-78448.178995
545.210249,18505.148550,8586.388927,-70327.566716
545.212826,22206.178260,-6809.894666,-70327.566716
545.215402,-28423.908173,6513.812290,-78141.740796
545.217979,-22058.137072,-296.082377,-78448.178995
545.220559,22650.301825,9918.759623,-72012.976812
545.223139,27239.578666,7550.100608,-71246.881314
545.225719,-4441.235652,-4737.318029,-75843.454302
545.228300,-2072.576638,-5033.400406,-76456.330700
545.230880,25611.125593,7994.224174,-71706.538613
545.233460,1036.288319,2220.617826,-74617.701505
545.236040,18209.066173,4589.276840,-73238.729609
545.238620,3849.070898,-11991.336260,-73851.606007
545.241200,-740.205942,1184.329507,-74617.701505
545.243781,-9770.718434,7698.141797,-75537.016103
545.246361,7698.141797,6365.771101,-74617.701505
545.248941,14952.160028,2516.700203,-75230.577904
545.251521,-7105.977043,-8734.430116,-77069.207099
545.254101,-3552.988522,4737.318029,-74464.482406
545.256681,3701.029710,5033.400406,-71859.757712
545.259262,13471.748144,9030.512492,-71246.881314
545.261842,3849.070898,-2812.782580,-77375.645298
545.264422,-32717.102636,444.123565,-82585.094684
545.267002,-28275.866984,16580.613101,-78907.836294
545.269582,23834.631332,11251.130318,-68488.937521
545.272162,38342.667796,-10955.047942,-70787.224015
545.274742,-45448.644839,-10362.883188,-83351.190182
545.277323,-40267.203245,21910.095883,-78907.836294
545.279903,42635.862259,8882.471304,-67416.403824
545.282483,22946.384202,-740.205942,-72166.195912
545.285063,-7698.141797,-6809.894666,-79367.493593
545.287643,-30496.484810,1480.411884,-79520.712692
545.290223,19245.354492,7402.059420,-72166.195912
545.292804,26499.372724,3701.029710,-69867.909418
545.295384,-1184.329507,-592.164754,-76149.892501
545.297964,-27091.537477,-2960.823768,-80286.808190
545.300544,3108.864956,7550.100608,-74311.263306
545.303127,29016.072926,1628.453072,-70021.128517
545.305710,11251.130318,2220.617826,-75077.358804
545.308294,-26351.331535,-5773.606348,-79367.493593
545.310877,7402.059420,14656.077652,-74464.482406
545.313460,28868.031738,-592.164754,-69867.909418
545.316043,-592.164754,-7254.018232,-75077.358804
545.318627,-12435.459826,5625.565159,-74311.263306
545.321210,-5329.482782,1184.329507,-75383.797003
545.323793,-9030.512492,592.164754,-77222.426198
545.326376,-10658.965565,592.164754,-77835.302597
545.328959,1480.411884,3404.947333,-74770.920605
545.331543,4885.359217,2368.659014,-74464.482406
545.334126,-3552.988522,444.123565,-74158.044206
545.336709,6809.894666,6661.853478,-72779.072310
545.339292,-2516.700203,3552.988522,-75077.358804
545.341876,-8586.388927,-7994.224174,-77069.207099
545.344459,-5625.565159,0.000000,-74770.920605
545.347042,17764.942608,1036.288319,-73698.386908
545.349625,-11547.212695,1776.494261,-77222.426198
545.352208,-17024.736666,23834.631332,-74311.263306
545.354792,20725.766376,-1332.370696,-70634.004916
545.357375,24722.878463,-10066.800811,-70480.785816
545.359958,-16432.571912,1036.288319,-77835.302597
545.362541,-14063.912898,18357.107362,-74924.139704
545.365125,34345.555709,444.123565,-70634.004916
545.367708,-17024.736666,6513.812290,-75996.673402
545.370291,-592.164754,-14656.077652,-75077.358804
545.372874,-5181.441594,3701.029710,-72472.634111
545.375457,13619.789333,3404.947333,-71553.319513
545.378041,-6957.935855,-6069.688724,-75230.577904
545.380624,9030.512492,2812.782580,-75843.454302
545.383207,0.000000,-3701.029710,-75843.454302
545.385790,-5921.647536,6809.894666,-74617.701505
545.388374,-444.123565,1924.535449,-72779.072310
545.390957,11991.336260,4145.153275,-72166.195912
545.393540,3552.988522,-1924.535449,-76609.549800
545.396123,-33753.390955,-2516.700203,-80593.246390
545.398706,12287.418637,9326.594869,-73391.948708
545.401290,8142.265362,10362.883188,-71553.319513
545.403873,9474.636058,-8142.265362,-75537.016103
545.406455,14952.160028,-888.247130,-74311.263306
545.409037,4441.235652,-2072.576638,-75690.235202
545.411619,8734.430116,9770.718434,-76762.768900
545.414201,-6365.771101,15100.201217,-74770.920605
545.416783,12139.377449,2220.617826,-72319.415011
545.419365,592.164754,-4293.194464,-75996.673402
545.421947,-4737.318029,-3404.947333,-77375.645298
545.424529,9474.636058,10955.047942,-72166.195912
545.427112,29460.196492,-1924.535449,-72012.976812
545.429694,-8142.265362,-7846.182985,-76609.549800
545.432276,-3256.906145,4145.153275,-76762.768900
545.434858,2516.700203,9474.636058,-74924.139704
545.437440,-14211.954086,16432.571912,-76149.892501
545.440022,-5329.482782,9622.677246,-74924.139704
545.442604,29164.114115,-7550.100608,-70021.128517
545.445186,27091.537477,-3256.906145,-71859.757712
545.447768,-29164.114115,2812.782580,-79520.712692
545.450350,-24722.878463,18061.024985,-76915.987999
545.452932,32717.102636,3849.070898,-69867.909418
545.455514,17912.983796,-2220.617826,-73238.729609
545.458096,-1628.453072,-444.123565,-75690.235202
545.460679,7254.018232,6513.812290,-75996.673402
545.463261,1776.494261,-4737.318029,-75537.016103
545.465843,18061.024985,-1628.453072,-72625.853210
545.468425,888.247130,3108.864956,-72932.291410
545.471007,8438.347739,1332.370696,-75843.454302
545.473589,-17172.777854,-148.041188,-77528.864398
545.476171,-10807.006753,-3997.112087,-76609.549800
545.478753,29016.072926,5921.647536,-70634.004916
545.481335,25463.084405,0.000000,-71400.100414
545.483917,-6069.688724,-8142.265362,-78141.740796
545.486499,-17320.819043,5625.565159,-77528.864398
545.489081,2812.782580,1184.329507,-75383.797003
545.491663,-16284.530724,1036.288319,-76609.549800
545.494245,-7994.224174,5181.441594,-74617.701505
545.496828,11991.336260,3701.029710,-73085.510509
545.499410,-4885.359217,1480.411884,-75843.454302
545.501992,-11103.089130,-1332.370696,-76609.549800
545.504574,8882.471304,-1184.329507,-74924.139704
545.507156,-8142.265362,1480.411884,-74770.920605
545.509737,-4293.194464,740.205942,-75230.577904
545.512319,-1480.411884,6069.688724,-73851.606007
545.514901,6809.894666,3108.864956,-74464.482406
545.517482,-20725.766376,-7846.182985,-77988.521696
545.520064,-11103.089130,8882.471304,-77222.426198
545.522645,-19837.519246,19393.395680,-74311.263306
545.525227,25611.125593,6217.729913,-69867.909418
545.527808,24426.796086,-16432.571912,-72625.853210
545.530390,-1480.411884,-14656.077652,-73545.167808
545.532972,8438.347739,-7254.018232,-74311.263306
545.535553,-25759.166782,11251.130318,-78754.617194
545.538135,-2516.700203,14063.912898,-78294.959896
545.540716,-1924.535449,-148.041188,-74617.701505
545.543298,3849.070898,3108.864956,-71859.757712
545.545879,-3108.864956,1776.494261,-74158.044206
545.548461,-10362.883188,4885.359217,-76303.111601
545.551042,-13471.748144,-3108.864956,-76303.111601
545.553624,30348.443622,2516.700203,-71246.881314
545.556206,5773.606348,-2812.782580,-75077.358804
545.558787,-31976.896694,11103.089130,-78141.740796
545.561369,-8290.306550,-3256.906145,-75230.577904
545.563950,25167.002028,4737.318029,-71246.881314
545.566532,-25759.166782,-5921.647536,-77835.302597
545.569113,7994.224174,1036.288319,-76915.987999
545.571695,-2516.700203,1036.288319,-76609.549800
545.574277,21169.889941,6513.812290,-73391.948708
545.576858,-3404.947333,296.082377,-74924.139704
545.579440,27239.578666,3997.112087,-72166.195912
545.582021,-6661.853478,-13915.871710,-75843.454302
545.584603,-10658.965565,14508.036463,-75843.454302
545.587184,-3404.947333,4293.194464,-75690.235202
545.589766,13027.624579,5773.606348,-75077.358804
545.592347,-2664.741391,-9918.759623,-76456.330700
545.594929,17764.942608,8438.347739,-71093.662214
545.597511,19689.478057,1332.370696,-72932.291410
545.600092,-4441.235652,-1480.411884,-74924.139704
545.602674,-2960.823768,-11695.253884,-77988.521696
545.605255,-12435.459826,-3849.070898,-79673.931792
545.607837,-33901.432144,23982.672521,-77069.207099
545.610418,66322.452403,-6809.894666,-67109.965625
545.612931,-17764.942608,2516.700203,-78141.740796
545.615443,-18801.230927,9918.759623,-76915.987999
545.617954,39526.997303,-15544.324782,-70480.785816
545.620466,3404.947333,-1776.494261,-75077.358804
545.622978,3701.029710,6809.894666,-76303.111601
545.625489,-12731.542202,0.000000,-76762.768900
545.628001,45300.603650,740.205942,-70327.566716
545.630512,-1924.535449,148.041188,-75230.577904
545.633024,-2812.782580,2368.659014,-75690.235202
545.635536,-31532.773129,1628.453072,-79673.931792
545.638047,21762.054695,444.123565,-71400.100414
545.640559,29164.114115,3849.070898,-69561.471218
545.643071,-10658.965565,148.041188,-77375.645298
545.645582,-8438.347739,-1036.288319,-76915.987999
545.648094,28127.825796,7254.018232,-70940.443115
545.650606,24574.837274,-8290.306550,-72319.415011
545.653117,-22058.137072,592.164754,-76762.768900
545.655629,2812.782580,8142.265362,-73698.386908
545.658141,-16580.613101,-2664.741391,-76456.330700
545.660652,-9622.677246,5329.482782,-75843.454302
545.663164,-7698.141797,-4885.359217,-76609.549800
545.665676,19837.519246,5773.606348,-72932.291410
545.668187,-7402.059420,-1036.288319,-74004.825107
545.670699,21614.013506,2812.782580,-72625.853210
545.673211,-13619.789333,-3404.947333,-76609.549800
545.675722,-4441.235652,1480.411884,-76149.892501
545.678234,-11103.089130,4589.276840,-75843.454302
545.680746,13619.789333,8586.388927,-71093.662214
545.683257,-9770.718434,4589.276840,-74924.139704
545.685769,-740.205942,-1628.453072,-73851.606007
545.688281,29312.155303,-5477.523971,-70327.566716
545.690792,13915.871710,-6217.729913,-75996.673402
545.693304,3701.029710,-17024.736666,-78601.398095
545.695816,-46781.015534,-6513.812290,-81512.560987
545.698327,-7994.224174,25759.166782,-71706.538613
545.700839,26203.290347,13767.830521,-69408.252119
545.703351,-22058.137072,-3849.070898,-78448.178995
545.705862,-21910.095883,-6661.853478,-78601.398095
545.708374,4737.318029,10066.800811,-73238.729609
545.710886,25018.960840,5033.400406,-70174.347617
545.713415,-27239.578666,-11843.295072,-78907.836294
545.715944,-5625.565159,4885.359217,-76303.111601
545.718474,12139.377449,444.123565,-72625.853210
545.721003,-2516.700203,10510.924376,-73391.948708
545.723532,-17764.942608,2220.617826,-76303.111601
545.726061,-11251.130318,7550.100608,-75843.454302
545.728591,1036.288319,-592.164754,-74464.482406
545.731120,5477.523971,-5033.400406,-74311.263306
545.733649,8438.347739,888.247130,-74464.482406
545.736179,18357.107362,7254.018232,-74464.482406
545.738708,-6661.853478,740.205942,-75383.797003
545.741237,29756.278868,1036.288319,-71093.662214
545.743766,2960.823768,-10955.047942,-75230.577904
545.746296,-20429.683999,11991.336260,-77988.521696
545.748825,-6513.812290,6513.812290,-75537.016103
545.751354,19541.436869,-148.041188,-74004.825107
545.753883,12139.377449,-8734.430116,-74924.139704
545.756413,-1776.494261,6661.853478,-73391.948708
545.758942,19245.354492,6217.729913,-70327.566716
545.761471,-2072.576638,-148.041188,-74924.139704
545.764001,-6365.771101,-6365.771101,-78754.617194
545.766530,-36566.173535,17616.901420,-78448.178995
545.769059,3849.070898,23538.548956,-72625.853210
545.771588,44412.356520,1924.535449,-67416.403824
545.774118,3849.070898,-1332.370696,-72319.415011
545.776647,26499.372724,-13175.665768,-72625.853210
545.779176,3404.947333,-11547.212695,-75383.797003
545.781706,6069.688724,4145.153275,-74311.263306
545.784235,592.164754,-1776.494261,-73851.606007
545.786764,5033.400406,6217.729913,-74004.825107
545.789293,35381.844028,2220.617826,-70480.785816
545.791823,-5921.647536,4293.194464,-74924.139704
545.794352,-13767.830521,-1184.329507,-77835.302597
545.796881,11843.295072,444.123565,-72625.853210
545.799410,25907.207970,-1332.370696,-71400.100414
545.801940,-12879.583391,5773.606348,-75996.673402
545.804469,7846.182985,2220.617826,-75077.358804
545.806998,10658.965565,5625.565159,-72625.853210
545.809528,26499.372724,-13767.830521,-73391.948708
545.812057,-23242.466579,4293.194464,-76149.892501
545.814600,9326.594869,16580.613101,-72625.853210
545.817143,-23686.590144,-888.247130,-77375.645298
545.819686,-15988.448347,6217.729913,-77069.207099
545.822229,740.205942,-7550.100608,-73851.606007
545.824772,20281.642811,8438.347739,-70634.004916
545.827315,-12583.501014,-1332.370696,-74004.825107
545.829858,15248.242405,-1480.411884,-73391.948708
545.832402,-19689.478057,-7402.059420,-77222.426198
545.834945,9178.553681,8290.306550,-73545.167808
545.837488,-888.247130,6365.771101,-73391.948708
545.840031,10362.883188,1332.370696,-72319.415011
545.842574,-19541.436869,-7846.182985,-74924.139704
545.845117,26351.331535,-9326.594869,-72319.415011
545.847660,33901.432144,-18505.148550,-70787.224015
545.850203,10658.965565,-5329.482782,-76303.111601
545.852746,-36862.255912,11251.130318,-79980.369991
545.855289,-24278.754898,26795.455100,-73851.606007
545.857832,34789.679274,-1184.329507,-68335.718422
545.860375,-1184.329507,-8142.265362,-75996.673402
545.862918,-32124.937883,-9770.718434,-81052.903688
545.865462,-11399.171507,8882.471304,-75996.673402
545.868005,25611.125593,-3701.029710,-73238.729609
545.870548,-9030.512492,-1628.453072,-75077.358804
545.873091,592.164754,8290.306550,-73851.606007
545.875634,-11399.171507,5625.565159,-75690.235202
545.878177,-20429.683999,13619.789333,-77528.864398
545.880720,4145.153275,-2664.741391,-74770.920605
545.883263,19689.478057,6513.812290,-72472.634111
545.885806,-26647.413912,-3108.864956,-77682.083497
545.888349,7550.100608,-2368.659014,-74464.482406
545.890892,3997.112087,8882.471304,-72625.853210
545.893435,25611.125593,4885.359217,-73085.510509
545.895979,-3256.906145,-3997.112087,-75690.235202
545.898522,23538.548956,1480.411884,-72012.976812
545.901065,-4145.153275,1776.494261,-74004.825107
545.903608,3108.864956,18357.107362,-72319.415011
545.906151,7402.059420,-3108.864956,-73391.948708
545.908694,10214.842000,1628.453072,-74924.139704
545.911237,-592.164754,-3701.029710,-76915.987999
545.913780,13915.871710,11547.212695,-72472.634111
545.916332,-9918.759623,-7550.100608,-75077.358804
545.918884,19689.478057,3552.988522,-71093.662214
545.921436,17024.736666,8290.306550,-69255.033019
545.923988,30496.484810,2812.782580,-70021.128517
545.926540,10214.842000,-17912.983796,-76456.330700
545.929091,-22946.384202,-3997.112087,-81359.341888
545.931643,8586.388927,-8438.347739,-74924.139704
545.934195,2516.700203,8438.347739,-74924.139704
545.936747,-5033.400406,8882.471304,-73851.606007
545.939299,-2072.576638,-5181.441594,-75996.673402
545.941851,18061.024985,9474.636058,-72625.853210
545.944403,22206.178260,444.123565,-72779.072310
545.946955,-6069.688724,-6365.771101,-77988.521696
545.949506,-1628.453072,-7105.977043,-75996.673402
545.952058,18061.024985,3997.112087,-72166.195912
545.954610,-2220.617826,3108.864956,-75383.797003
545.957162,-7105.977043,148.041188,-75690.235202
545.959714,25907.207970,-3701.029710,-73851.606007
545.962266,-5773.606348,-4589.276840,-77375.645298
545.964818,888.247130,4145.153275,-75843.454302
545.967370,4441.235652,10214.842000,-72012.976812
545.969922,10066.800811,-11695.253884,-73545.167808
545.972473,-13619.789333,-4293.194464,-75383.797003
545.975025,2664.741391,1776.494261,-75230.577904
545.977577,-10510.924376,1628.453072,-77222.426198
545.980129,-9326.594869,6069.688724,-77069.207099
545.982681,-2368.659014,-3552.988522,-74311.263306
545.985233,-888.247130,-1480.411884,-73698.386908
545.987785,8142.265362,7846.182985,-72012.976812
545.990337,4145.153275,6365.771101,-75383.797003
545.992889,-11547.212695,-2516.700203,-78141.740796
545.995440,-13915.871710,-3108.864956,-79980.369991
545.997992,-2072.576638,6957.935855,-74464.482406
546.000544,-29312.155303,4885.359217,-78294.959896
546.003096,-46781.015534,29312.155303,-79367.493593
546.005648,6217.729913,19985.560434,-68795.375720
546.008200,72392.141128,-33161.226202,-66956.746525
546.010752,-14804.118840,-20429.683999,-81972.218286
546.013304,-56995.857534,13027.624579,-80899.684589
546.015856,3108.864956,26499.372724,-71246.881314
546.018415,27535.661042,13767.830521,-68335.718422
546.020974,-7846.182985,-7254.018232,-78448.178995
546.023534,-24426.796086,16876.695478,-78754.617194
546.026093,-14211.954086,-5921.647536,-77069.207099
546.028653,19393.395680,1776.494261,-69408.252119
546.031212,22206.178260,-3256.906145,-70174.347617
546.033772,8734.430116,13767.830521,-71400.100414
546.036331,-19689.478057,8142.265362,-77528.864398
546.038891,-11547.212695,-2220.617826,-75537.016103
546.041450,17764.942608,2812.782580,-72012.976812
546.044010,-592.164754,-2368.659014,-74617.701505
546.046569,-2812.782580,888.247130,-75843.454302
546.049129,17764.942608,888.247130,-73545.167808
546.051688,-2368.659014,4885.359217,-74311.263306
546.054248,20577.725188,3849.070898,-71553.319513
546.056807,-3404.947333,-7698.141797,-75996.673402
546.059366,-13915.871710,8882.471304,-76149.892501
546.061926,-3256.906145,7402.059420,-74770.920605
546.064485,6957.935855,4737.318029,-75996.673402
546.067045,8142.265362,-6957.935855,-76609.549800
546.069604,16432.571912,888.247130,-74924.139704
546.072164,-22058.137072,3256.906145,-79520.712692
546.074723,3997.112087,4145.153275,-74770.920605
546.077283,-7105.977043,12583.501014,-71859.757712
546.079842,17320.819043,14359.995275,-70021.128517
546.082402,29904.320057,-11991.336260,-73238.729609
546.084961,18209.066173,-19837.519246,-76762.768900
546.087521,296.082377,-13323.706956,-79520.712692
546.090080,-26499.372724,12139.377449,-78141.740796
546.092640,10362.883188,-1924.535449,-72472.634111
546.095199,32124.937883,1924.535449,-72779.072310
546.097758,43376.068201,5477.523971,-67876.061123
546.100318,-1184.329507,1480.411884,-76762.768900
546.102877,-12731.542202,-9030.512492,-78907.836294
546.105437,8882.471304,-7550.100608,-74464.482406
546.107996,19541.436869,8586.388927,-70940.443115
546.110556,-2664.741391,2664.741391,-73391.948708
546.113115,5625.565159,-2368.659014,-75537.016103
546.115675,-11991.336260,-8290.306550,-77528.864398
546.118234,9770.718434,5921.647536,-75383.797003
546.120799,-6217.729913,14804.118840,-73085.510509
546.123365,3701.029710,-6513.812290,-73545.167808
546.125930,-20281.642811,-4589.276840,-75537.016103
546.128495,7105.977043,1628.453072,-73851.606007
546.131060,-6069.688724,1924.535449,-76762.768900
546.133626,-18653.189738,9030.512492,-77988.521696
546.136191,-5921.647536,-6069.688724,-75230.577904
546.138756,5625.565159,-1036.288319,-72012.976812
546.141321,15248.242405,9622.677246,-70021.128517
546.143887,-1184.329507,7846.182985,-74158.044206
546.146452,-10955.047942,-6661.853478,-76456.330700
546.149017,-3849.070898,444.123565,-76609.549800
546.151582,-2368.659014,4441.235652,-75383.797003
546.154148,-32421.020260,19837.519246,-76762.768900
546.156713,5033.400406,6957.935855,-73851.606007
546.159278,5181.441594,5181.441594,-75077.358804
546.161843,-5773.606348,-2368.659014,-76149.892501
546.164409,-17764.942608,15396.283594,-75383.797003
546.166974,2072.576638,7254.018232,-71859.757712
546.169539,-3404.947333,1628.453072,-73545.167808
546.172104,-11399.171507,1036.288319,-77375.645298
546.174670,-5181.441594,10066.800811,-78448.178995
546.177235,-17320.819043,-4441.235652,-78907.836294
546.179800,11103.089130,4441.235652,-72319.415011
546.182365,9178.553681,5773.606348,-72012.976812
546.184931,-17320.819043,12583.501014,-74617.701505
546.187496,-3849.070898,5625.565159,-77682.083497
546.190061,6365.771101,-1036.288319,-75383.797003
546.192626,740.205942,-4589.276840,-75230.577904
546.195192,592.164754,-2960.823768,-75230.577904
546.197757,-3552.988522,8438.347739,-74924.139704
546.200322,10510.924376,888.247130,-74770.920605
546.202887,8734.430116,2220.617826,-73698.386908
546.205453,23390.507767,740.205942,-73085.510509
546.208018,-5477.523971,4293.194464,-75383.797003
546.210583,-1924.535449,8586.388927,-74311.263306
546.213148,12435.459826,-1184.329507,-72166.195912
546.215714,9770.718434,2220.617826,-75077.358804
546.218279,-4293.194464,4885.359217,-77682.083497
546.220844,2220.617826,296.082377,-76762.768900
546.223412,11695.253884,3552.988522,-71246.881314
546.225980,19097.313304,3849.070898,-69714.690318
546.228549,4145.153275,7105.977043,-70787.224015
546.231117,44560.397708,-16580.613101,-69101.813920
546.233685,-5625.565159,-8142.265362,-81512.560987
546.236253,-62325.340316,22650.301825,-83810.847481
546.238821,34197.514520,10658.965565,-67876.061123
546.241389,50037.921679,-15544.324782,-65424.555529
546.243958,21465.972318,1628.453072,-70787.224015
546.246526,-31680.814318,-7550.100608,-80133.589091
546.249094,9918.759623,1628.453072,-74004.825107
546.251662,19393.395680,-11103.089130,-74004.825107
546.254230,19837.519246,14952.160028,-71400.100414
546.256798,4293.194464,5921.647536,-74158.044206
546.259367,-16728.654289,-5033.400406,-77528.864398
546.261935,-4441.235652,-12879.583391,-76609.549800
546.264503,23094.425390,13767.830521,-71706.538613
546.267071,14952.160028,10066.800811,-72319.415011
546.269639,12583.501014,-15544.324782,-76149.892501
546.272207,-22058.137072,-4737.318029,-76456.330700
546.274776,12583.501014,9770.718434,-72012.976812
546.277344,-23982.672521,1480.411884,-76456.330700
546.279912,-3108.864956,2368.659014,-75230.577904
546.282480,6217.729913,-7105.977043,-76456.330700
546.285048,14804.118840,5181.441594,-73545.167808
546.287616,-12879.583391,4293.194464,-75230.577904
546.290185,-6513.812290,-7698.141797,-76149.892501
546.292753,-12139.377449,-1776.494261,-73698.386908
546.295321,27831.743419,13619.789333,-69714.690318
546.297889,1184.329507,1776.494261,-73238.729609
546.300457,-5329.482782,-888.247130,-76762.768900
546.303025,13175.665768,-16284.530724,-73851.606007
546.305593,10066.800811,-6217.729913,-73851.606007
546.308162,-11695.253884,7846.182985,-77682.083497
546.310730,-34789.679274,26647.413912,-78141.740796
546.313298,-34937.720462,22798.343014,-76456.330700
546.315866,25611.125593,12287.418637,-68029.280222
546.318434,7402.059420,-6957.935855,-71400.100414
546.321002,-26647.413912,-5033.400406,-78601.398095
546.323571,-11991.336260,9770.718434,-76762.768900
546.326142,7550.100608,-4885.359217,-74311.263306
546.328713,-1924.535449,2368.659014,-74311.263306
546.331284,5921.647536,-1776.494261,-73391.948708
546.333855,-23094.425390,17172.777854,-74770.920605
546.336426,-3552.988522,0.000000,-73851.606007
546.338997,14508.036463,-1924.535449,-73085.510509
546.341568,-7846.182985,-1628.453072,-76456.330700
546.344138,-3997.112087,1924.535449,-76915.987999
546.346709,-740.205942,9622.677246,-75077.358804
546.349280,10955.047942,1924.535449,-74311.263306
546.351851,9622.677246,4885.359217,-73238.729609
546.354422,20281.642811,-1776.494261,-73851.606007
546.356993,-5773.606348,2368.659014,-77069.207099
546.359564,-7550.100608,9326.594869,-74924.139704
546.362135,14063.912898,740.205942,-73085.510509
546.364706,15100.201217,2960.823768,-73851.606007
546.367277,-5625.565159,3701.029710,-78907.836294
546.369848,-4145.153275,-4441.235652,-78448.178995
546.372419,20429.683999,-4145.153275,-72625.853210
546.374990,1036.288319,9474.636058,-74924.139704
546.377561,8290.306550,20429.683999,-66803.527426
546.380132,70911.729244,-8882.471304,-64811.679131
546.382703,-19541.436869,-2072.576638,-77528.864398
546.385274,17320.819043,-17468.860231,-77682.083497
546.387845,-13619.789333,-11991.336260,-79673.931792
546.390416,8438.347739,11991.336260,-73545.167808
546.392987,25167.002028,10362.883188,-69561.471218
546.395558,14359.995275,3256.906145,-72779.072310
546.398129,-11251.130318,-11251.130318,-77988.521696
546.400700,9622.677246,3256.906145,-74311.263306
546.403271,30496.484810,-444.123565,-71246.881314
546.405842,-1184.329507,6513.812290,-74924.139704
546.408413,-7402.059420,-6513.812290,-75077.358804
546.410984,8882.471304,7105.977043,-73698.386908
546.413555,1036.288319,-8438.347739,-75690.235202
546.416126,6069.688724,444.123565,-75843.454302
546.418697,-1480.411884,9178.553681,-75077.358804
546.421268,-3997.112087,592.164754,-75077.358804
546.423839,-17616.901420,-296.082377,-75077.358804
546.426410,6365.771101,-1776.494261,-73545.167808
546.428982,-4441.235652,7846.182985,-75843.454302
546.431554,-20725.766376,1776.494261,-79827.150892
546.434126,-3849.070898,-4589.276840,-76915.987999
546.436698,11251.130318,296.082377,-71246.881314
546.439270,25167.002028,7254.018232,-67263.184724
546.441843,7698.141797,7698.141797,-71093.662214
546.444415,-12583.501014,-5921.647536,-77222.426198
546.446987,-4293.194464,-10955.047942,-77682.083497
546.449559,28423.908173,-7402.059420,-73851.606007
546.452131,-20577.725188,-592.164754,-78907.836294
546.454703,-23242.466579,13915.871710,-78907.836294
546.457275,-14804.118840,5625.565159,-77528.864398
546.459847,-19393.395680,16876.695478,-73085.510509
546.462419,13619.789333,7550.100608,-70634.004916
546.464991,-2812.782580,1924.535449,-74770.920605
546.467563,-15100.201217,-7846.182985,-77222.426198
546.470136,-33161.226202,-1036.288319,-77988.521696
546.472708,13175.665768,5625.565159,-73851.606007
546.475280,444.123565,7550.100608,-73238.729609
546.477852,9918.759623,-6365.771101,-74158.044206
546.480424,-13619.789333,-6957.935855,-75383.797003
546.482996,7698.141797,9622.677246,-73698.386908
546.485568,1628.453072,9326.594869,-72779.072310
546.488140,11103.089130,592.164754,-74617.701505
546.490712,-14063.912898,-15396.283594,-78294.959896
546.493284,7254.018232,6957.935855,-74311.263306
546.495857,17024.736666,9622.677246,-72779.072310
546.498429,7550.100608,2368.659014,-74464.482406
546.501001,12731.542202,-5033.400406,-72472.634111
546.503573,12139.377449,-11695.253884,-73698.386908
546.506145,-15840.407159,4885.359217,-76609.549800
546.508717,-1924.535449,11103.089130,-75230.577904
546.511289,11991.336260,-2368.659014,-74924.139704
546.513861,6809.894666,2368.659014,-75537.016103
546.516433,-4737.318029,-740.205942,-77988.521696
546.519005,7402.059420,-10807.006753,-74158.044206
546.521577,6661.853478,6217.729913,-73085.510509
546.524150,-7550.100608,11399.171507,-73698.386908
546.526722,-5625.565159,6661.853478,-74617.701505
546.529294,9326.594869,740.205942,-76762.768900
546.531867,-9030.512492,0.000000,-78141.740796
546.534440,-12731.542202,10510.924376,-78141.740796
546.537014,5773.606348,2368.659014,-74158.044206
546.539587,30496.484810,1628.453072,-69255.033019
546.542160,11103.089130,2664.741391,-72166.195912
546.544733,-7698.141797,-6365.771101,-76762.768900
546.547307,10510.924376,-5921.647536,-76609.549800
546.549880,5477.523971,3701.029710,-75537.016103
546.552453,-1776.494261,13471.748144,-74158.044206
546.555026,9918.759623,-3701.029710,-74924.139704
546.557600,-12879.583391,-7402.059420,-77375.645298
546.560173,-3108.864956,9770.718434,-75690.235202
546.562746,19541.436869,12731.542202,-72319.415011
546.565320,5033.400406,-444.123565,-74924.139704
546.567893,-10362.883188,3997.112087,-74464.482406
546.570466,-888.247130,-1036.288319,-73698.386908
546.573039,-10510.924376,4737.318029,-76303.111601
546.575613,-20281.642811,-148.041188,-78448.178995
546.578186,1628.453072,-1628.453072,-75690.235202
546.580759,11991.336260,6217.729913,-71246.881314
546.583332,13767.830521,1776.494261,-73085.510509
546.585906,-25907.207970,-4293.194464,-77222.426198
546.588479,-1776.494261,-296.082377,-75077.358804
546.591052,9178.553681,1332.370696,-74004.825107
546.593626,13471.748144,-3701.029710,-77528.864398
546.596199,-7846.182985,-10955.047942,-78601.398095
546.598772,-26351.331535,14656.077652,-78294.959896
546.601345,26943.496289,-4293.194464,-68182.499322
546.603919,11399.171507,-12731.542202,-73391.948708
546.606492,-28275.866984,3552.988522,-78907.836294
546.609065,-14063.912898,4737.318029,-75996.673402
546.611638,22502.260637,10362.883188,-70480.785816
546.614212,-15988.448347,-4737.318029,-76456.330700
546.616786,-20281.642811,2664.741391,-78907.836294
546.619360,-10362.883188,3849.070898,-76149.892501
546.621933,14804.118840,15544.324782,-69561.471218
546.624507,9030.512492,-8734.430116,-72472.634111
546.627081,-3404.947333,-592.164754,-74464.482406
546.629654,-30940.608376,-10510.924376,-79673.931792
546.632228,6069.688724,6513.812290,-74004.825107
546.634802,10510.924376,13027.624579,-72012.976812
546.637375,6217.729913,-1924.535449,-76149.892501
546.639949,3256.906145,-5773.606348,-76456.330700
546.642522,9030.512492,592.164754,-74311.263306
546.645096,7846.182985,8586.388927,-73391.948708
546.647670,19837.519246,-6809.894666,-72012.976812
546.650243,4589.276840,-4589.276840,-74311.263306
546.652817,-9918.759623,9178.553681,-76609.549800
546.655391,740.205942,2368.659014,-76762.768900
546.657964,11547.212695,2960.823768,-73545.167808
546.660538,8290.306550,1036.288319,-73238.729609
546.663112,-592.164754,6809.894666,-74004.825107
546.665685,6957.935855,10214.842000,-72012.976812
546.668259,10807.006753,-4885.359217,-70940.443115
546.670832,7105.977043,-740.205942,-75843.454302
546.673406,-21614.013506,9178.553681,-78294.959896
546.675980,12435.459826,6809.894666,-75077.358804
546.678553,30940.608376,-2812.782580,-71706.538613
546.681127,13471.748144,-6069.688724,-74464.482406
546.683701,-6661.853478,2220.617826,-74311.263306
546.686274,17468.860231,-1480.411884,-71093.662214
546.688848,28719.990550,-4293.194464,-72012.976812
546.691422,15100.201217,-296.082377,-72779.072310
546.693995,-11991.336260,4589.276840,-76456.330700
546.696569,13175.665768,1184.329507,-74004.825107
546.699142,-1036.288319,-9178.553681,-75996.673402
546.701716,592.164754,3256.906145,-75537.016103
546.704290,-7846.182985,16580.613101,-75690.235202
546.706863,1332.370696,-7105.977043,-75537.016103
546.709437,1628.453072,1924.535449,-73085.510509
546.712011,2220.617826,2960.823768,-74158.044206
546.714584,-24574.837274,7254.018232,-77988.521696
546.717158,-14211.954086,-2960.823768,-77835.302597
546.719732,8438.347739,444.123565,-77375.645298
546.722305,10214.842000,5329.482782,-71553.319513
546.724879,13619.789333,1776.494261,-72319.415011
546.727452,-23982.672521,2516.700203,-77988.521696
546.730026,-2812.782580,-888.247130,-75537.016103
546.732600,13915.871710,11547.212695,-69408.252119
546.735173,41155.450375,-5033.400406,-69714.690318
546.737747,1480.411884,-15100.201217,-77375.645298
546.740320,-31532.773129,16876.695478,-80440.027290
546.742894,8882.471304,9030.512492,-70021.128517
546.745468,49741.839302,-21169.889941,-66650.308326
546.748041,-25759.166782,5477.523971,-77375.645298
546.750615,-29312.155303,-148.041188,-78601.398095
546.753188,-54923.280896,888.247130,-81359.341888
546.755762,27683.702231,2664.741391,-71553.319513
546.758336,27683.702231,3108.864956,-70021.128517
546.760909,4293.194464,-1924.535449,-75843.454302
546.763483,-39675.038491,-14211.954086,-80133.589091
546.766057,13619.789333,7105.977043,-71093.662214
546.768630,21169.889941,14211.954086,-67876.061123
546.771204,4885.359217,2960.823768,-74770.920605
546.773777,-21762.054695,-18061.024985,-81206.122788
546.776351,8882.471304,5329.482782,-74924.139704
546.778925,22650.301825,11991.336260,-72012.976812
546.781498,6365.771101,6957.935855,-73391.948708
546.784072,15248.242405,148.041188,-71553.319513
546.786645,5329.482782,-9178.553681,-75383.797003
546.789219,-17616.901420,10658.965565,-76609.549800
546.791793,6957.935855,6513.812290,-74004.825107
546.794366,17468.860231,-3108.864956,-74158.044206
546.796940,3256.906145,-296.082377,-76762.768900
546.799514,-6809.894666,6365.771101,-75537.016103
546.802087,15988.448347,9770.718434,-71553.319513
546.804661,45448.644839,-11843.295072,-68795.375720
546.807234,4885.359217,-4589.276840,-75077.358804
546.809808,-22650.301825,2960.823768,-78141.740796
546.812382,11399.171507,7105.977043,-72625.853210
546.814955,41451.532752,-9326.594869,-72932.291410
546.817529,27091.537477,4441.235652,-71706.538613
546.820103,2812.782580,-3701.029710,-77528.864398
546.822676,-6069.688724,1332.370696,-75690.235202
546.825250,30792.567187,6513.812290,-69255.033019
546.827824,31680.814318,-5921.647536,-70327.566716
546.830397,-1628.453072,-2664.741391,-76456.330700
546.832971,-20429.683999,296.082377,-77682.083497
546.835545,30052.361245,1332.370696,-72625.853210
546.838119,2368.659014,-5773.606348,-75690.235202
546.840692,-10362.883188,7402.059420,-76762.768900
546.843266,-5477.523971,10066.800811,-74924.139704
546.845840,1184.329507,-4589.276840,-75996.673402
546.848413,-9474.636058,-1776.494261,-74770.920605
546.850987,9918.759623,3849.070898,-72625.853210
546.853561,-13175.665768,7846.182985,-77222.426198
546.856135,-17172.777854,2516.700203,-78294.959896
546.858708,-3256.906145,-9030.512492,-75690.235202
546.861282,11695.253884,6217.729913,-72012.976812
546.863856,-5033.400406,1480.411884,-75230.577904
546.866430,-15988.448347,4737.318029,-75843.454302
546.869003,5181.441594,-148.041188,-75077.358804
546.871577,-4293.194464,14211.954086,-74311.263306
546.874151,8586.388927,11991.336260,-70327.566716
546.876724,26795.455100,-6513.812290,-71553.319513
546.879298,12731.542202,-8586.388927,-76915.987999
546.881872,-38194.626607,11695.253884,-78294.959896
546.884446,-2220.617826,13915.871710,-70940.443115
546.887019,19393.395680,-8438.347739,-69714.690318
546.889593,1776.494261,7105.977043,-72319.415011
546.892167,-26647.413912,-3256.906145,-78601.398095
546.894740,-17468.860231,2812.782580,-78294.959896
546.897314,9622.677246,-1776.494261,-74924.139704
546.899888,2812.782580,23094.425390,-72932.291410
546.902462,-6365.771101,2072.576638,-75690.235202
546.905035,-296.082377,-3404.947333,-75843.454302
546.907609,-14063.912898,-12287.418637,-77375.645298
546.910183,8734.430116,-1332.370696,-73851.606007
546.912757,13619.789333,18505.148550,-72779.072310
546.915330,4145.153275,-592.164754,-76762.768900
546.917904,6365.771101,-5477.523971,-76149.892501
546.920478,11991.336260,-4441.235652,-73698.386908
546.923005,-2516.700203,9030.512492,-74004.825107
546.925532,15544.324782,-2368.659014,-72012.976812
546.928059,9474.636058,-1480.411884,-74311.263306
546.930586,-2516.700203,6513.812290,-77069.207099
546.933113,-8734.430116,4885.359217,-77069.207099
546.935640,17320.819043,-2368.659014,-74464.482406
546.938167,16728.654289,-9030.512492,-72625.853210
546.940694,36270.091158,-5773.606348,-70174.347617
546.943221,-9918.759623,2516.700203,-77069.207099
546.945748,-22650.301825,7254.018232,-78141.740796
546.948275,25611.125593,592.164754,-70940.443115
546.950803,34493.596897,-6957.935855,-70634.004916
546.953330,-7402.059420,0.000000,-77682.083497
546.955857,-5477.523971,2812.782580,-77222.426198
546.958384,20725.766376,3256.906145,-71400.100414
546.960911,29904.320057,5329.482782,-69408.252119
546.963438,12287.418637,-7550.100608,-74158.044206
546.965965,-14211.954086,-3849.070898,-77682.083497
546.968492,-296.082377,3404.947333,-73698.386908
546.971019,32865.143825,8438.347739,-70940.443115
546.973546,7846.182985,-740.205942,-73391.948708
546.976073,-4589.276840,-7254.018232,-77069.207099
546.978600,-13915.871710,10214.842000,-75383.797003
546.981127,7105.977043,-2664.741391,-74158.044206
546.983654,-7846.182985,4885.359217,-73851.606007
546.986182,3552.988522,-148.041188,-73851.606007
546.988709,-11399.171507,6513.812290,-76762.768900
546.991236,-21465.972318,444.123565,-78448.178995
546.993763,1036.288319,-5033.400406,-74924.139704
546.996290,10362.883188,8290.306550,-72166.195912
546.998817,-9326.594869,1184.329507,-75996.673402
547.001344,-18801.230927,7698.141797,-76762.768900
547.003871,3552.988522,-9770.718434,-75230.577904
547.006398,21614.013506,-7698.141797,-72779.072310
547.008925,-22650.301825,-1332.370696,-79980.369991
547.011452,-20873.807564,8734.430116,-79367.493593
547.013979,5477.523971,-7698.141797,-77528.864398
547.016506,-20577.725188,11399.171507,-78754.617194
547.019033,-9918.759623,7550.100608,-74311.263306
547.021561,11843.295072,2220.617826,-70634.004916
547.024097,-22502.260637,-1480.411884,-75996.673402
547.026634,-20281.642811,3404.947333,-76609.549800
547.029171,592.164754,9030.512492,-74770.920605
547.031708,13027.624579,6957.935855,-73545.167808
547.034245,15100.201217,-4885.359217,-72625.853210
547.036782,-8734.430116,-4145.153275,-76609.549800
547.039319,-13175.665768,9326.594869,-73851.606007
547.041856,19541.436869,9770.718434,-70787.224015
547.044393,5033.400406,-8142.265362,-75383.797003
547.046930,1924.535449,-7105.977043,-77069.207099
547.049467,9770.718434,7105.977043,-74770.920605
547.052004,5477.523971,6069.688724,-73085.510509
547.054541,26647.413912,296.082377,-70327.566716
547.057078,-1480.411884,-3849.070898,-75537.016103
547.059615,-11991.336260,9178.553681,-75996.673402
547.062152,14952.160028,-5033.400406,-76609.549800
547.064689,12583.501014,-1628.453072,-73698.386908
547.067226,17024.736666,-592.164754,-73698.386908
547.069763,1036.288319,2812.782580,-74770.920605
547.072300,14211.954086,-11399.171507,-76609.549800
547.074837,-48261.427418,2220.617826,-81052.903688
547.077374,21465.972318,21762.054695,-68182.499322
547.079911,64990.081708,-15840.407159,-67876.061123
547.082448,-48853.592172,-1628.453072,-83964.066581
547.084985,-18949.272115,4145.153275,-79980.369991
547.087522,18209.066173,15988.448347,-70787.224015
547.090059,41155.450375,888.247130,-69714.690318
547.092596,12287.418637,11399.171507,-72779.072310
547.095133,-148.041188,-3404.947333,-77069.207099
547.097670,-8438.347739,-4293.194464,-76303.111601
547.100207,11399.171507,4145.153275,-70940.443115
547.102743,26647.413912,6069.688724,-70787.224015
547.105280,-4293.194464,-2664.741391,-77222.426198
547.107817,-5773.606348,-11695.253884,-77682.083497
547.110354,-4589.276840,14952.160028,-74311.263306
547.112891,-3404.947333,740.205942,-74770.920605
547.115428,-1036.288319,5921.647536,-72932.291410
547.117965,4737.318029,-3256.906145,-73545.167808
547.120502,-21762.054695,10955.047942,-77222.426198
547.123039,-18209.066173,-3701.029710,-78754.617194
547.125585,-10066.800811,-3404.947333,-76762.768900
547.128130,16580.613101,888.247130,-72012.976812
547.130676,-9622.677246,3849.070898,-75077.358804
547.133221,-9918.759623,7550.100608,-73545.167808
547.135767,9918.759623,3997.112087,-72932.291410
547.138312,27239.578666,-1184.329507,-70480.785816
547.140857,16284.530724,-11251.130318,-74464.482406
547.143403,-7698.141797,2368.659014,-77988.521696
547.145948,-11991.336260,-4589.276840,-79061.055394
547.148494,-24574.837274,11251.130318,-78754.617194
547.151039,3997.112087,4145.153275,-73851.606007
547.153585,-4441.235652,13323.706956,-71859.757712
547.156130,13471.748144,9622.677246,-70634.004916
547.158676,-6661.853478,-2072.576638,-75077.358804
547.161221,-10658.965565,-9030.512492,-78601.398095
547.163767,-26351.331535,5773.606348,-77682.083497
547.166312,21317.931130,13619.789333,-70940.443115
547.168857,9474.636058,-4737.318029,-73698.386908
547.171403,-27387.619854,-3997.112087,-78294.959896
547.173948,1332.370696,3108.864956,-75077.358804
547.176494,13767.830521,14804.118840,-71706.538613
547.179039,6957.935855,-7402.059420,-76149.892501
547.181585,10658.965565,-1332.370696,-75077.358804
547.184130,1184.329507,-888.247130,-74924.139704
547.186676,-4441.235652,6365.771101,-74617.701505
547.189221,18357.107362,-4589.276840,-71706.538613
547.191767,7846.182985,888.247130,-73851.606007
547.194312,444.123565,10510.924376,-75383.797003
547.196857,-6661.853478,1628.453072,-76609.549800
547.199403,11399.171507,-8586.388927,-74158.044206
547.201948,2516.700203,-4441.235652,-76149.892501
547.204494,-42191.738694,25018.960840,-77375.645298
547.207039,6365.771101,20725.766376,-71400.100414
547.209585,40711.326810,1332.370696,-62360.173537
547.212130,66618.534780,-20133.601622,-69408.252119
547.214676,-33013.185013,-14656.077652,-84883.381178
547.217221,-31088.649564,-2220.617826,-83044.751983
547.219767,-10955.047942,-4589.276840,-77682.083497
547.222312,32865.143825,22354.219448,-67876.061123
547.224858,42043.697506,-12583.501014,-69561.471218
547.227409,-17024.736666,-3108.864956,-78601.398095
547.229960,-15248.242405,1332.370696,-76609.549800
547.232511,28571.949361,7254.018232,-71093.662214
547.235062,12435.459826,-6661.853478,-74311.263306
547.237613,-10066.800811,3552.988522,-78141.740796
547.240164,-11251.130318,10362.883188,-74924.139704
547.242715,9918.759623,-8142.265362,-72625.853210
547.245266,9622.677246,2960.823768,-71553.319513
547.247817,10510.924376,2960.823768,-72779.072310
547.250368,-21317.931130,8586.388927,-77835.302597
547.252919,-25018.960840,4737.318029,-79520.712692
547.255470,9770.718434,-8142.265362,-73391.948708
547.258021,14804.118840,7550.100608,-69867.909418
547.260572,-13471.748144,296.082377,-74311.263306
547.263123,2072.576638,6809.894666,-75077.358804
547.265674,-12139.377449,-592.164754,-76609.549800
547.268225,-13027.624579,13027.624579,-74311.263306
547.270776,16728.654289,-2664.741391,-72779.072310
547.273327,16580.613101,-3701.029710,-73545.167808
547.275878,-11103.089130,-4589.276840,-79061.055394
547.278429,-26943.496289,8142.265362,-77835.302597
547.280980,-14211.954086,9326.594869,-75537.016103
547.283531,-2960.823768,-888.247130,-73851.606007
547.286082,-444.123565,7550.100608,-74158.044206
547.288633,-22798.343014,5329.482782,-77835.302597
547.291184,5181.441594,-1776.494261,-75690.235202
547.293735,-5329.482782,-7254.018232,-75537.016103
547.296286,9178.553681,10658.965565,-73391.948708
547.298837,2220.617826,5921.647536,-73085.510509
547.301388,-8438.347739,-2516.700203,-75383.797003
547.303939,9178.553681,-22058.137072,-75077.358804
547.306490,6217.729913,15988.448347,-74464.482406
547.309042,12879.583391,10214.842000,-74311.263306
547.311593,-5773.606348,8438.347739,-75690.235202
547.314144,23242.466579,-4589.276840,-73085.510509
547.316695,3552.988522,-4737.318029,-73851.606007
547.319246,1036.288319,6809.894666,-73391.948708
547.321797,11843.295072,-6809.894666,-73851.606007
547.324348,15988.448347,10955.047942,-74770.920605
547.326899,-2220.617826,148.041188,-75690.235202
547.329455,-5181.441594,5329.482782,-75537.016103
547.332010,3256.906145,5033.400406,-72166.195912
547.334566,48853.592172,5181.441594,-66190.651027
547.337122,11547.212695,-6217.729913,-76149.892501
547.339678,-59364.516548,-6069.688724,-80593.246390
547.342234,-47965.345042,9918.759623,-83810.847481
547.344789,33161.226202,1480.411884,-71706.538613
547.347345,32717.102636,6661.853478,-69714.690318
547.349901,2812.782580,-4589.276840,-75230.577904
547.352457,1924.535449,-5625.565159,-75996.673402
547.355013,14063.912898,7402.059420,-72319.415011
547.357569,16728.654289,12583.501014,-70787.224015
547.360124,-4589.276840,-6957.935855,-78754.617194
547.362680,-19689.478057,-4885.359217,-79214.274493
547.365236,6957.935855,16580.613101,-73545.167808
547.367792,32865.143825,1480.411884,-69408.252119
547.370348,10362.883188,-5181.441594,-73238.729609
547.372903,-2960.823768,7698.141797,-72932.291410
547.375459,-5477.523971,-296.082377,-75230.577904
547.378015,-22798.343014,9178.553681,-77528.864398
547.380571,4145.153275,-9178.553681,-75230.577904
547.383127,11695.253884,6513.812290,-71859.757712
547.385683,4145.153275,7698.141797,-72625.853210
547.388238,-12879.583391,-3108.864956,-75230.577904
547.390794,-2220.617826,-4589.276840,-77222.426198
547.393350,-19689.478057,6957.935855,-76456.330700
547.395906,-11843.295072,15692.365970,-74311.263306
547.398462,51814.415940,-2812.782580,-64505.240932
547.401017,42487.821071,-27387.619854,-74924.139704
547.403573,-11103.089130,-13767.830521,-79214.274493
547.406129,-74464.717765,14952.160028,-87488.105872
547.408685,-5921.647536,1924.535449,-72932.291410
547.411241,43376.068201,3108.864956,-64964.898230
547.413797,-10955.047942,8142.265362,-76303.111601
547.416352,-62769.463882,3701.029710,-83964.066581
547.418908,888.247130,-13619.789333,-74924.139704
547.421464,48261.427418,296.082377,-66956.746525
547.424020,-148.041188,14804.118840,-75383.797003
547.426576,-29312.155303,9918.759623,-79673.931792
547.429131,-1480.411884,-12731.542202,-75690.235202
547.431692,29460.196492,-13323.706956,-74311.263306
547.434252,26795.455100,-10955.047942,-72472.634111
547.436812,7402.059420,15396.283594,-75230.577904
547.439372,-7698.141797,2664.741391,-75843.454302
547.441932,25018.960840,-3256.906145,-71246.881314
547.444492,14804.118840,-3552.988522,-72932.291410
547.447052,-9770.718434,10066.800811,-75230.577904
547.449612,9770.718434,-10658.965565,-74158.044206
547.452172,13027.624579,10214.842000,-72472.634111
547.454732,9474.636058,-2516.700203,-73085.510509
547.457292,296.082377,-5329.482782,-75537.016103
547.459852,14211.954086,-14656.077652,-75843.454302
547.462412,-17912.983796,7994.224174,-76609.549800
547.464972,-592.164754,-1480.411884,-75537.016103
547.467532,-15692.365970,4441.235652,-78907.836294
547.470092,3108.864956,11251.130318,-75383.797003
547.472652,21614.013506,1924.535449,-72012.976812
547.475212,17172.777854,740.205942,-74004.825107
547.477772,-8438.347739,-1184.329507,-77835.302597
547.480332,-5921.647536,9326.594869,-75230.577904
547.482892,15840.407159,-3701.029710,-72779.072310
547.485452,7254.018232,-2368.659014,-74158.044206
547.488012,12731.542202,6365.771101,-75077.358804
547.490572,-7846.182985,3997.112087,-76762.768900
547.493132,6217.729913,-14359.995275,-75843.454302
547.495692,-19985.560434,-1036.288319,-75383.797003
547.498252,10807.006753,8290.306550,-73238.729609
547.500812,-27831.743419,1628.453072,-77069.207099
547.503372,5921.647536,-2368.659014,-74464.482406
547.505932,2960.823768,-888.247130,-74617.701505
547.508492,-14211.954086,15100.201217,-76456.330700
547.511052,-12583.501014,-10510.924376,-77375.645298
547.513612,2812.782580,3997.112087,-72779.072310
547.516172,-444.123565,2516.700203,-71706.538613
547.518732,9622.677246,13175.665768,-73851.606007
547.521292,-35529.885216,1628.453072,-81818.999186
547.523852,-3849.070898,14063.912898,-73851.606007
547.526412,30644.525999,-7105.977043,-73698.386908
547.528972,49149.674549,4293.194464,-62360.173537
547.531532,38934.832549,-24870.919651,-70787.224015
547.534053,-50334.004056,13027.624579,-81972.218286
547.536575,-16728.654289,-4441.235652,-77682.083497
547.539096,5477.523971,10214.842000,-71706.538613
547.541618,14211.954086,10066.800811,-71553.319513
547.544140,-19985.560434,-1628.453072,-77222.426198
547.546661,-10510.924376,-11991.336260,-77682.083497
547.549183,2072.576638,5181.441594,-73545.167808
547.551704,27387.619854,14063.912898,-69561.471218
547.554226,-2072.576638,-7254.018232,-75537.016103
547.556747,-6809.894666,-3552.988522,-75996.673402
547.559269,-1184.329507,-11843.295072,-77222.426198
547.561790,18505.148550,8586.388927,-73851.606007
547.564312,8290.306550,5625.565159,-73851.606007
547.566833,18653.189738,888.247130,-73085.510509
547.569355,-4589.276840,-7402.059420,-76456.330700
547.571876,7402.059420,2516.700203,-73238.729609
547.574398,15248.242405,-7846.182985,-74004.825107
547.576920,5033.400406,11991.336260,-75230.577904
547.579441,-4885.359217,4293.194464,-77682.083497
547.581963,1628.453072,9326.594869,-73698.386908
547.584484,36418.132346,-7846.182985,-69561.471218
547.587006,14063.912898,444.123565,-72012.976812
547.589527,18061.024985,-9326.594869,-74004.825107
547.592049,-38342.667796,3108.864956,-83197.971083
547.594570,0.000000,13027.624579,-74924.139704
547.597092,32421.020260,5033.400406,-70940.443115
547.599613,19245.354492,888.247130,-72779.072310
547.602135,10362.883188,-15692.365970,-75537.016103
547.604656,2960.823768,8290.306550,-73545.167808
547.607178,13175.665768,9622.677246,-72319.415011
547.609700,1036.288319,-7105.977043,-77069.207099
547.612221,-9622.677246,-7994.224174,-79367.493593
547.614743,6957.935855,16580.613101,-72932.291410
547.617264,30052.361245,-3701.029710,-69867.909418
547.619786,6217.729913,-6365.771101,-71553.319513
547.622307,1628.453072,4885.359217,-73545.167808
547.624829,-28719.990550,-1628.453072,-78754.617194
547.627350,-12731.542202,8734.430116,-76915.987999
547.629872,17172.777854,-8586.388927,-73545.167808
547.632393,8438.347739,9474.636058,-73238.729609
547.634927,-17172.777854,1924.535449,-75843.454302
547.637460,-8586.388927,-6809.894666,-75537.016103
547.639993,-592.164754,296.082377,-72319.415011
547.642526,9918.759623,19541.436869,-72166.195912
547.645058,2960.823768,5033.400406,-72166.195912
547.647591,26499.372724,-6809.894666,-72166.195912
547.650124,4589.276840,2368.659014,-73238.729609
547.652657,-7105.977043,1036.288319,-72166.195912
547.655190,6365.771101,3849.070898,-70940.443115
547.657722,1332.370696,-2368.659014,-74617.701505
547.660255,-28127.825796,-3404.947333,-79214.274493
547.662788,-22058.137072,7698.141797,-77222.426198
547.665321,17468.860231,-3701.029710,-72319.415011
547.667854,-3404.947333,9770.718434,-74311.263306
547.670387,-9474.636058,4441.235652,-76149.892501
547.672919,5329.482782,-3108.864956,-75383.797003
547.675452,-3849.070898,-6809.894666,-75230.577904
547.677985,14211.954086,0.000000,-72472.634111
547.680518,11695.253884,13619.789333,-72779.072310
547.683051,8142.265362,7402.059420,-75230.577904
547.685584,2516.700203,-1480.411884,-75843.454302
547.688116,12731.542202,-6217.729913,-73851.606007
547.690649,-2072.576638,3997.112087,-74004.825107
547.693182,15100.201217,-3404.947333,-72932.291410
547.695715,-6365.771101,7105.977043,-75537.016103
547.698248,1628.453072,6809.894666,-76609.549800
547.700781,-6957.935855,-444.123565,-78294.959896
547.703313,8290.306550,6365.771101,-74617.701505
547.705846,-17172.777854,22354.219448,-72625.853210
547.708379,43524.109390,11547.212695,-66803.527426
547.710912,40119.162056,-11695.253884,-67263.184724
547.713445,55071.322085,-3997.112087,-65577.774629
547.715978,11251.130318,-22798.343014,-76915.987999
547.718510,-16580.613101,2812.782580,-80286.808190
547.721043,4589.276840,4737.318029,-74311.263306
547.723576,58772.351795,1776.494261,-67416.403824
547.726109,6661.853478,-12731.542202,-74770.920605
547.728642,-20577.725188,18357.107362,-77222.426198
547.731175,-7550.100608,-7402.059420,-77835.302597
547.733707,20577.725188,740.205942,-72319.415011
547.736250,22946.384202,8734.430116,-70940.443115
547.738792,14211.954086,2368.659014,-73698.386908
547.741334,-26203.290347,-16580.613101,-77988.521696
547.743877,-1184.329507,-1036.288319,-73545.167808
547.746419,-7550.100608,-3404.947333,-74770.920605
547.748961,-10214.842000,14508.036463,-75843.454302
547.751504,3997.112087,-7254.018232,-75537.016103
547.754046,9474.636058,1628.453072,-73391.948708
547.756589,-3404.947333,0.000000,-74158.044206
547.759131,-6513.812290,1036.288319,-74158.044206
547.761673,-1036.288319,-5921.647536,-71553.319513
547.764216,23538.548956,444.123565,-73085.510509
547.766758,-20281.642811,1480.411884,-80440.027290
547.769300,-17764.942608,11251.130318,-80746.465489
547.771843,-740.205942,6069.688724,-72012.976812
547.774385,38934.832549,-7994.224174,-68335.718422
547.776927,15100.201217,-9622.677246,-70327.566716
547.779470,-26351.331535,3701.029710,-76762.768900
547.782012,-15988.448347,-5921.647536,-76915.987999
547.784554,1036.288319,10066.800811,-74311.263306
547.787097,11991.336260,888.247130,-72625.853210
547.789639,-296.082377,-4589.276840,-75230.577904
547.792182,-10214.842000,-5033.400406,-75843.454302
547.794724,6069.688724,10955.047942,-71553.319513
547.797266,19393.395680,-592.164754,-71246.881314
547.799809,3256.906145,-9770.718434,-75383.797003
547.802351,-1036.288319,-5625.565159,-76456.330700
547.804893,5477.523971,1628.453072,-75230.577904
547.807436,1480.411884,6365.771101,-74311.263306
547.809978,22650.301825,3701.029710,-70634.004916
547.812520,12139.377449,-3552.988522,-73698.386908
547.815063,-6513.812290,3404.947333,-75843.454302
547.817613,14952.160028,-6513.812290,-74924.139704
547.820163,9178.553681,10362.883188,-72932.291410
547.822713,-888.247130,3552.988522,-75690.235202
547.825263,-20281.642811,11399.171507,-75690.235202
547.827813,29460.196492,5033.400406,-68795.375720
547.830364,23686.590144,2812.782580,-70940.443115
547.832914,-19245.354492,5625.565159,-77528.864398
547.835464,17320.819043,296.082377,-73545.167808
547.838014,18357.107362,-888.247130,-74004.825107
547.840564,18505.148550,-1332.370696,-72319.415011
547.843114,15396.283594,-8142.265362,-74924.139704
547.845665,3256.906145,3849.070898,-74311.263306
547.848215,3849.070898,9770.718434,-73545.167808
547.850765,-1332.370696,-6217.729913,-75383.797003
547.853315,6809.894666,1776.494261,-74617.701505
547.855865,15100.201217,7550.100608,-72012.976812
547.858415,13619.789333,-5921.647536,-74311.263306
547.860965,-28423.908173,592.164754,-77835.302597
547.863516,1776.494261,4885.359217,-74158.044206
547.866066,-12879.583391,-1332.370696,-74924.139704
547.868616,888.247130,3256.906145,-73698.386908
547.871166,11843.295072,-7105.977043,-74311.263306
547.873716,-7994.224174,11103.089130,-76149.892501
547.876266,-13915.871710,-2516.700203,-76915.987999
547.878816,0.000000,-3552.988522,-74770.920605
547.881367,5329.482782,5625.565159,-72472.634111
547.883917,-7105.977043,10362.883188,-73851.606007
547.886467,35085.761651,-8882.471304,-71093.662214
547.889017,22798.343014,-17616.901420,-73085.510509
547.891567,-1924.535449,-10214.842000,-80286.808190
547.894117,-45152.562462,16876.695478,-80899.684589
547.896667,-5773.606348,14656.077652,-72625.853210
547.899218,3552.988522,3256.906145,-72319.415011
547.901768,7105.977043,5181.441594,-71859.757712
547.904318,-12287.418637,-2960.823768,-77835.302597
547.906868,-36270.091158,16136.489536,-78448.178995
547.909418,18949.272115,-6513.812290,-72012.976812
547.911968,18357.107362,-2516.700203,-71553.319513
547.914518,-11695.253884,6365.771101,-74158.044206
547.917069,4293.194464,11399.171507,-73698.386908
547.919624,0.000000,-8882.471304,-75996.673402
547.922180,17468.860231,-3849.070898,-74464.482406
547.924735,15840.407159,5329.482782,-74158.044206
547.927291,-5329.482782,7254.018232,-75077.358804
547.929846,20725.766376,5921.647536,-73085.510509
547.932402,16728.654289,1628.453072,-71553.319513
547.934957,4885.359217,6661.853478,-73698.386908
547.937513,7994.224174,-10066.800811,-75843.454302
547.940069,8882.471304,3849.070898,-72319.415011
547.942624,14211.954086,5625.565159,-72472.634111
547.945180,28127.825796,-6661.853478,-71859.757712
547.947735,-1480.411884,-9030.512492,-75537.016103
547.950291,-14804.118840,11251.130318,-76762.768900
547.952846,-6365.771101,13915.871710,-73545.167808
547.955402,39230.914926,-4145.153275,-72012.976812
547.957957,10510.924376,-8882.471304,-76149.892501
547.960513,6957.935855,2072.576638,-75996.673402
547.963069,-5329.482782,4145.153275,-76149.892501
547.965624,24130.713709,-1776.494261,-70787.224015
547.968180,13027.624579,-2812.782580,-71400.100414
547.970735,20873.807564,5625.565159,-74158.044206
547.973291,-34789.679274,-2072.576638,-82125.437386
547.975846,2368.659014,5625.565159,-76303.111601
547.978402,11695.253884,9622.677246,-70021.128517
547.980957,14804.118840,-3404.947333,-71400.100414
547.983513,-16284.530724,2220.617826,-75537.016103
547.986068,-11843.295072,1480.411884,-76915.987999
547.988624,-13323.706956,8882.471304,-76303.111601
547.991180,19097.313304,-6957.935855,-73851.606007
547.993735,7698.141797,-7105.977043,-73085.510509
547.996291,8586.388927,8586.388927,-71553.319513
547.998846,-10658.965565,1480.411884,-72779.072310
548.001402,-2220.617826,15100.201217,-73851.606007
548.003957,4885.359217,-12879.583391,-74158.044206
548.006513,14211.954086,-6957.935855,-74158.044206
548.009068,-592.164754,0.000000,-74770.920605
548.011624,1332.370696,3701.029710,-73391.948708
548.014179,12583.501014,-8290.306550,-72319.415011
548.016735,-15248.242405,8142.265362,-74770.920605
548.019291,-21614.013506,-148.041188,-77069.207099
548.021851,-6513.812290,10066.800811,-77528.864398
548.024411,1184.329507,5329.482782,-74924.139704
548.026971,13915.871710,-5033.400406,-73085.510509
548.029532,-3256.906145,-2220.617826,-74464.482406
548.032092,-6957.935855,13323.706956,-73851.606007
548.034652,7105.977043,1924.535449,-73238.729609
548.037213,14804.118840,-13471.748144,-74770.920605
548.039773,5181.441594,-2072.576638,-76456.330700
548.042333,10955.047942,11399.171507,-74004.825107
548.044894,5625.565159,5625.565159,-73085.510509
548.047454,24870.919651,-6365.771101,-71553.319513
548.050014,-6513.812290,-4293.194464,-75690.235202
548.052575,1184.329507,-5625.565159,-75996.673402
548.055135,296.082377,-4441.235652,-77375.645298
548.057695,9030.512492,14804.118840,-75077.358804
548.060255,-1480.411884,3997.112087,-75230.577904
548.062816,-24574.837274,15840.407159,-74617.701505
548.065376,32865.143825,5033.400406,-67569.622924
548.067936,53146.786636,-5773.606348,-66803.527426
548.070497,22354.219448,-27387.619854,-79367.493593
548.073057,-55071.322085,-2072.576638,-85189.819378
548.075617,18209.066173,3701.029710,-72472.634111
548.078178,27239.578666,24722.878463,-68182.499322
548.080738,21465.972318,-296.082377,-73391.948708
548.083298,-29016.072926,-12731.542202,-80440.027290
548.085859,-29312.155303,-3108.864956,-80286.808190
548.088419,25907.207970,6365.771101,-71093.662214
548.090979,29312.155303,10214.842000,-70327.566716
548.093539,-13175.665768,-11103.089130,-78601.398095
548.096100,-25315.043216,8142.265362,-76762.768900
548.098660,5477.523971,-10066.800811,-73698.386908
548.101220,9770.718434,10807.006753,-70940.443115
548.103781,-9326.594869,5033.400406,-74924.139704
548.106341,-21614.013506,13323.706956,-77528.864398
548.108901,0.000000,-9622.677246,-76609.549800
548.111462,17468.860231,-444.123565,-71859.757712
548.114022,4145.153275,3701.029710,-72932.291410
548.116582,-15840.407159,3997.112087,-71859.757712
548.119143,-4589.276840,-1628.453072,-75996.673402
548.121703,-10066.800811,-4589.276840,-78907.836294
548.124266,-35233.802839,29904.320057,-79061.055394
548.126829,-740.205942,7105.977043,-72319.415011
548.129392,60252.763679,-26499.372724,-66803.527426
548.131956,-15840.407159,-8586.388927,-76915.987999
548.134519,-42043.697506,12583.501014,-79673.931792
548.137082,-14063.912898,1332.370696,-74924.139704
548.139645,35085.761651,4293.194464,-70634.004916
548.142208,-24870.919651,10362.883188,-78448.178995
548.144771,-17320.819043,7254.018232,-78141.740796
548.147335,-13915.871710,-7402.059420,-77682.083497
548.149898,-4885.359217,-5329.482782,-73851.606007
548.152461,28127.825796,5033.400406,-69714.690318
548.155024,-2664.741391,20577.725188,-74617.701505
548.157587,-2516.700203,-13175.665768,-79061.055394
548.160150,21169.889941,-3256.906145,-74311.263306
548.162714,7550.100608,3701.029710,-73545.167808
548.165277,10214.842000,11399.171507,-71859.757712
548.167840,13027.624579,-1628.453072,-72625.853210
548.170403,4589.276840,1036.288319,-74311.263306
548.172966,6513.812290,-9474.636058,-77222.426198
548.175529,5033.400406,11991.336260,-76149.892501
548.178093,10066.800811,8438.347739,-72625.853210
548.180656,3849.070898,14211.954086,-70174.347617
548.183219,24130.713709,-1332.370696,-67722.842023
548.185782,21614.013506,2220.617826,-71400.100414
548.188345,19393.395680,-18653.189738,-76456.330700
548.190908,-9770.718434,-3108.864956,-78448.178995
548.193472,9918.759623,13323.706956,-74311.263306
548.196035,29756.278868,6513.812290,-69561.471218
548.198598,22946.384202,-15840.407159,-72319.415011
548.201161,-15840.407159,9030.512492,-74924.139704
548.203724,5625.565159,0.000000,-76149.892501
548.206287,-2812.782580,148.041188,-76149.892501
548.208851,11103.089130,7994.224174,-75537.016103
548.211414,2220.617826,2960.823768,-72472.634111
548.213977,12879.583391,-3997.112087,-72012.976812
548.216540,-8438.347739,4885.359217,-72932.291410
548.219103,-13619.789333,-444.123565,-76609.549800
548.221666,-15100.201217,3108.864956,-76456.330700
548.224230,21169.889941,-6957.935855,-73851.606007
548.226795,5921.647536,3552.988522,-73391.948708
548.229361,-11251.130318,3552.988522,-75230.577904
548.231927,-13915.871710,-4737.318029,-74924.139704
548.234493,15988.448347,-1776.494261,-72012.976812
548.237059,24722.878463,-5625.565159,-72932.291410
548.239625,-15396.283594,148.041188,-80286.808190
548.242190,-27683.702231,12139.377449,-81512.560987
548.244756,-42931.944636,19245.354492,-76149.892501
548.247322,35381.844028,-1628.453072,-64658.460031
548.249888,5773.606348,-6069.688724,-69714.690318
548.252454,-27683.702231,296.082377,-79214.274493
548.255020,-32124.937883,-7550.100608,-80899.684589
548.257585,10510.924376,9918.759623,-72625.853210
548.260151,17172.777854,7550.100608,-71400.100414
548.262717,-11103.089130,-1184.329507,-77375.645298
548.265283,-33309.267390,-4885.359217,-78141.740796
548.267849,35381.844028,10658.965565,-69255.033019
548.270415,-1332.370696,8882.471304,-72625.853210
548.272980,7105.977043,7105.977043,-76915.987999
548.275546,8142.265362,-6513.812290,-76303.111601
548.278112,11399.171507,-1776.494261,-72779.072310
548.280678,3108.864956,8142.265362,-72012.976812
548.283244,15840.407159,9178.553681,-71859.757712
548.285809,-740.205942,-1184.329507,-75383.797003
548.288375,14211.954086,-7698.141797,-76762.768900
548.290941,1628.453072,-2812.782580,-74311.263306
548.293507,30644.525999,-10807.006753,-72166.195912
548.296073,-30496.484810,-2516.700203,-79214.274493
548.298639,-8438.347739,6217.729913,-75383.797003
548.301204,19245.354492,-9178.553681,-72625.853210
548.303770,4145.153275,4145.153275,-76456.330700
548.306336,3997.112087,-1776.494261,-76915.987999
548.308902,2220.617826,4589.276840,-75996.673402
548.311468,14804.118840,10807.006753,-72166.195912
548.314034,-444.123565,-4737.318029,-74464.482406
548.316599,-4441.235652,-4441.235652,-74617.701505
548.319165,22058.137072,5625.565159,-73238.729609
548.321731,296.082377,5921.647536,-77375.645298
548.324297,-11991.336260,-1332.370696,-79061.055394
548.326863,-4293.194464,5625.565159,-73391.948708
548.329431,2072.576638,-5033.400406,-72625.853210
548.331999,888.247130,11547.212695,-72012.976812
548.334567,5329.482782,4737.318029,-73391.948708
548.337135,-19245.354492,11695.253884,-77835.302597
548.339703,-8438.347739,-592.164754,-78448.178995
548.342271,6957.935855,-6661.853478,-73238.729609
548.344839,14211.954086,4885.359217,-70634.004916
548.347407,-4589.276840,-740.205942,-71246.881314
548.349975,2516.700203,-888.247130,-74311.263306
548.352543,-6661.853478,-11399.171507,-78601.398095
548.355111,-10066.800811,7402.059420,-78601.398095
548.357679,-24130.713709,12139.377449,-78448.178995
548.360247,13175.665768,8586.388927,-69255.033019
548.362815,11991.336260,-11547.212695,-69867.909418
548.365383,-24574.837274,8438.347739,-70940.443115
548.367951,-17468.860231,-3108.864956,-78294.959896
548.370519,-30200.402434,7550.100608,-79673.931792
548.373087,29904.320057,-7402.059420,-73085.510509
548.375655,5181.441594,2812.782580,-73085.510509
548.378223,-3701.029710,10066.800811,-73545.167808
548.380791,-10510.924376,0.000000,-74924.139704
548.383359,15544.324782,-12435.459826,-74770.920605
548.385927,12583.501014,592.164754,-74004.825107
548.388495,19541.436869,12879.583391,-74158.044206
548.391063,1628.453072,3552.988522,-74617.701505
548.393631,18209.066173,-10066.800811,-73085.510509
548.396199,3701.029710,-9030.512492,-73851.606007
548.398767,9326.594869,-7994.224174,-75383.797003
548.401335,-14656.077652,2960.823768,-78754.617194
548.403903,12139.377449,19245.354492,-75383.797003
548.406471,12879.583391,6957.935855,-72625.853210
548.409039,39082.873738,-13027.624579,-69714.690318
548.411608,296.082377,-12139.377449,-72932.291410
548.414176,-6365.771101,10214.842000,-73698.386908
548.416744,32569.061448,-10214.842000,-71859.757712
548.419312,7550.100608,-2368.659014,-77682.083497
548.421880,-5477.523971,-444.123565,-79673.931792
548.424448,1036.288319,18505.148550,-73545.167808
548.427016,34493.596897,-7402.059420,-68335.718422
548.429584,4441.235652,-2664.741391,-71093.662214
548.432153,34789.679274,-148.041188,-72166.195912
548.434722,-33309.267390,-444.123565,-81818.999186
548.437291,148.041188,4589.276840,-78754.617194
548.439860,-592.164754,8142.265362,-72166.195912
548.442429,13027.624579,-888.247130,-71093.662214
548.444998,-19097.313304,3997.112087,-73851.606007
548.447567,-5773.606348,1332.370696,-75996.673402
548.450136,-12583.501014,6957.935855,-77069.207099
548.452705,19541.436869,-7254.018232,-75537.016103
548.455274,6217.729913,-2812.782580,-73851.606007
548.457843,-740.205942,4293.194464,-68795.375720
548.460412,-18801.230927,0.000000,-75230.577904
548.462981,-22354.219448,10510.924376,-79061.055394
548.465550,-21762.054695,14063.912898,-77069.207099
548.468119,26795.455100,4589.276840,-69867.909418
548.470688,50630.086433,-18505.148550,-68488.937521
548.473258,-10066.800811,-6513.812290,-76609.549800
548.475827,-47373.180288,2960.823768,-78448.178995
548.478396,8290.306550,13767.830521,-68642.156621
548.480965,26499.372724,13915.871710,-68948.594820
548.483534,-14211.954086,888.247130,-78601.398095
548.486103,-30792.567187,-3997.112087,-82431.875585
548.488672,9326.594869,-7846.182985,-73545.167808
548.491241,-8586.388927,1776.494261,-71246.881314
548.493810,45448.644839,17172.777854,-65884.212828
548.496379,-20429.683999,2960.823768,-77375.645298
548.498948,5625.565159,-14508.036463,-78601.398095
548.501517,22058.137072,-1480.411884,-74158.044206
548.504086,24870.919651,11103.089130,-70940.443115
548.506655,8882.471304,2516.700203,-71400.100414
548.509224,-1184.329507,-6365.771101,-73698.386908
548.511793,444.123565,-9474.636058,-74464.482406
548.514362,-1924.535449,9030.512492,-77222.426198
548.516931,8290.306550,7846.182985,-74770.920605
548.519500,10362.883188,-11103.089130,-78448.178995
548.522070,-11399.171507,-8586.388927,-79214.274493
548.524639,-46484.933158,19837.519246,-75537.016103
548.527208,60548.846056,8882.471304,-63739.145434
548.529777,35381.844028,-5181.441594,-72319.415011
548.532346,-16876.695478,-6365.771101,-81665.780087
548.534916,12435.459826,-9622.677246,-76456.330700
548.537486,34049.473332,10658.965565,-68642.156621
548.540056,12435.459826,296.082377,-72472.634111
548.542627,-37010.297100,-7105.977043,-78601.398095
548.545197,13915.871710,4589.276840,-73851.606007
548.547767,34641.638086,6069.688724,-69867.909418
548.550338,13915.871710,-6217.729913,-77375.645298
548.552908,-56255.651592,4293.194464,-78294.959896
548.555478,-20873.807564,3108.864956,-77069.207099
548.558048,-28571.949361,-4145.153275,-76149.892501
548.560619,16580.613101,5773.606348,-72012.976812
548.563189,-4293.194464,5477.523971,-76762.768900
548.565759,-19837.519246,15100.201217,-79980.369991
548.568329,-13619.789333,-11103.089130,-77835.302597
548.570900,15692.365970,2664.741391,-70480.785816
548.573470,-3108.864956,5329.482782,-71246.881314
548.576040,-26795.455100,19393.395680,-75230.577904
548.578610,15544.324782,-6513.812290,-74311.263306
548.581181,24574.837274,-8882.471304,-72472.634111
548.583751,37750.503042,-11251.130318,-69255.033019
548.586321,-15100.201217,-1184.329507,-74464.482406
548.588891,-31236.690752,148.041188,-75690.235202
548.591462,-5625.565159,3552.988522,-72319.415011
548.594032,15248.242405,11843.295072,-71093.662214
548.596602,7550.100608,-13027.624579,-77835.302597
548.599173,-22946.384202,7402.059420,-79367.493593
548.601743,5773.606348,6365.771101,-72319.415011
548.604313,8438.347739,148.041188,-70174.347617
548.606883,8142.265362,-20133.601622,-73391.948708
548.609454,-444.123565,12879.583391,-74924.139704
548.612024,17912.983796,7402.059420,-76149.892501
548.614594,10658.965565,1036.288319,-75690.235202
548.617164,19245.354492,-7698.141797,-72319.415011
548.619735,-10955.047942,-8438.347739,-74311.263306
548.622305,-1036.288319,3997.112087,-75077.358804
548.624875,-10658.965565,12731.542202,-75996.673402
548.627445,26055.249158,10807.006753,-76149.892501
548.630016,148.041188,-592.164754,-77069.207099
548.632586,34493.596897,-6809.894666,-70634.004916
548.635156,1776.494261,-1776.494261,-71553.319513
548.637691,-9474.636058,14656.077652,-72625.853210
548.640225,31976.896694,-7254.018232,-70787.224015
548.642760,14656.077652,2516.700203,-75230.577904
548.645294,25018.960840,-18949.272115,-77988.521696
548.647829,9770.718434,-7994.224174,-75230.577904
548.650363,10214.842000,7254.018232,-71859.757712
548.652897,-8734.430116,-3256.906145,-73238.729609
548.655432,19689.478057,4589.276840,-71553.319513
548.657966,18505.148550,-3108.864956,-73238.729609
548.660501,17912.983796,-296.082377,-77835.302597
548.663035,-43524.109390,2812.782580,-80746.465489
548.665570,2368.659014,4885.359217,-73085.510509
548.668104,-16284.530724,-2960.823768,-72472.634111
548.670638,9030.512492,10066.800811,-72012.976812
548.673173,-22946.384202,5625.565159,-78754.617194
548.675707,-7550.100608,11547.212695,-79214.274493
548.678242,-13471.748144,-7254.018232,-78294.959896
548.680776,8290.306550,-1480.411884,-68335.718422
548.683311,6069.688724,10214.842000,-67569.622924
548.685845,26943.496289,6957.935855,-68335.718422
548.688379,10510.924376,-19985.560434,-77988.521696
548.690914,-8734.430116,-2072.576638,-83351.190182
548.693448,-57884.104664,14656.077652,-83810.847481
548.695983,13915.871710,19837.519246,-67263.184724
548.698517,14804.118840,-10362.883188,-66497.089226
548.701052,-12435.459826,6809.894666,-75383.797003
548.703586,-49593.798114,-5477.523971,-81512.560987
548.706120,27535.661042,-592.164754,-74158.044206
548.708655,26055.249158,-12287.418637,-73545.167808
548.711189,10807.006753,11547.212695,-68642.156621
548.713724,0.000000,7994.224174,-72932.291410
548.716258,-16284.530724,148.041188,-75843.454302
548.718793,27239.578666,-20725.766376,-74464.482406
548.721327,29016.072926,5921.647536,-73238.729609
548.723861,-1332.370696,12287.418637,-76149.892501
548.726396,13323.706956,3701.029710,-72779.072310
548.728930,1924.535449,-15840.407159,-73851.606007
548.731465,3108.864956,2516.700203,-74004.825107
548.733999,-18653.189738,9474.636058,-77222.426198
548.736534,22798.343014,8586.388927,-75077.358804
548.739076,39378.956114,740.205942,-69101.813920
548.741618,39082.873738,-25167.002028,-73085.510509
548.744160,-68987.193794,8734.430116,-81359.341888
548.746702,6809.894666,26943.496289,-67263.184724
548.749245,69727.399736,1776.494261,-65424.555529
548.751787,6957.935855,-17024.736666,-79827.150892
548.754329,-35381.844028,-3256.906145,-85036.600278
548.756871,23390.507767,17912.983796,-70174.347617
548.759413,46781.015534,-148.041188,-65271.336430
548.761955,11695.253884,-11991.336260,-73545.167808
548.764498,-58624.310606,-5181.441594,-84270.504780
548.767040,7698.141797,16580.613101,-75383.797003
548.769582,42635.862259,6217.729913,-68488.937521
548.772124,35381.844028,-888.247130,-68182.499322
548.774666,-4441.235652,5773.606348,-71246.881314
548.777209,-26795.455100,3997.112087,-75996.673402
548.779751,-32717.102636,-888.247130,-78294.959896
548.782293,32124.937883,-8290.306550,-74004.825107
548.784835,8438.347739,3108.864956,-75383.797003
548.787377,-3256.906145,10807.006753,-75996.673402
548.789920,-16580.613101,-2220.617826,-75230.577904
548.792462,19985.560434,1036.288319,-67722.842023
548.795004,15100.201217,-7550.100608,-71859.757712
548.797546,-6661.853478,9030.512492,-79980.369991
548.800088,-17172.777854,-4145.153275,-81972.218286
548.802631,-31236.690752,4293.194464,-79827.150892
548.805173,0.000000,4885.359217,-70174.347617
548.807715,1628.453072,11695.253884,-68182.499322
548.810257,1924.535449,296.082377,-73085.510509
548.812799,-18801.230927,-15692.365970,-81206.122788
548.815341,-6365.771101,5477.523971,-78754.617194
548.817884,19689.478057,13767.830521,-72012.976812
548.820426,1184.329507,-1184.329507,-73085.510509
548.822968,-12139.377449,-20873.807564,-76762.768900
548.825510,7698.141797,13767.830521,-71553.319513
548.828052,19689.478057,9770.718434,-73238.729609
548.830595,16876.695478,-1184.329507,-76762.768900
548.833137,-3997.112087,-8882.471304,-75383.797003
548.835679,-9770.718434,-5181.441594,-74617.701505
548.838221,-1628.453072,9326.594869,-72472.634111
548.840770,3552.988522,13767.830521,-71093.662214
548.843319,23094.425390,-2664.741391,-75690.235202
548.845867,-19837.519246,1332.370696,-81206.122788
548.848416,5033.400406,10955.047942,-74464.482406
548.850965,10955.047942,4145.153275,-71246.881314
548.853514,-5921.647536,6217.729913,-70787.224015
548.856062,23834.631332,-3701.029710,-72166.195912
548.858611,6069.688724,296.082377,-77682.083497
548.861160,5477.523971,4589.276840,-79061.055394
548.863709,5033.400406,5181.441594,-76915.987999
548.866257,4145.153275,4589.276840,-69561.471218
548.868806,40711.326810,-592.164754,-67263.184724
548.871355,-28719.990550,296.082377,-77835.302597
548.873904,-10955.047942,6069.688724,-80746.465489
548.876452,9178.553681,3997.112087,-74464.482406
548.879001,25167.002028,-7105.977043,-70327.566716
548.881550,-11843.295072,11547.212695,-73238.729609
548.884099,-34197.514520,-4293.194464,-77528.864398
548.886647,-11695.253884,-4293.194464,-74311.263306
548.889196,27535.661042,-4589.276840,-72932.291410
548.891745,2664.741391,12731.542202,-75537.016103
548.894293,-17764.942608,2072.576638,-79367.493593
548.896842,-16432.571912,-10658.965565,-75690.235202
548.899391,19393.395680,-8734.430116,-71859.757712
548.901940,-24574.837274,-3849.070898,-78141.740796
548.904488,-36566.173535,22058.137072,-82431.875585
548.907037,-5625.565159,9622.677246,-74924.139704
548.909586,51370.292375,-6365.771101,-68335.718422
548.912135,-29756.278868,-3108.864956,-75843.454302
548.914683,-36418.132346,-1924.535449,-77222.426198
548.917232,-11251.130318,13027.624579,-71093.662214
548.919781,43228.027013,740.205942,-71093.662214
548.922330,-20133.601622,-6217.729913,-81512.560987
548.924878,-11103.089130,11991.336260,-78601.398095
548.927427,-13767.830521,5921.647536,-74924.139704
548.929976,14952.160028,3552.988522,-71093.662214
548.932525,16876.695478,-16284.530724,-72319.415011
548.935073,24130.713709,7846.182985,-74004.825107
548.937622,-3701.029710,11399.171507,-76149.892501
548.940171,29016.072926,-2072.576638,-72625.853210
548.942725,-740.205942,-11251.130318,-73851.606007
548.945279,-444.123565,9326.594869,-72932.291410
548.947834,-7698.141797,6809.894666,-72012.976812
548.950388,30052.361245,9770.718434,-72472.634111
548.952942,11843.295072,1924.535449,-74004.825107
548.955496,47077.097911,-12287.418637,-72166.195912
548.958051,-16136.489536,3404.947333,-73238.729609
548.960605,-4441.235652,5329.482782,-71093.662214
548.963159,30200.402434,2664.741391,-70480.785816
548.965713,23834.631332,-1332.370696,-74770.920605
548.968268,15248.242405,-20577.725188,-77375.645298
548.970822,7698.141797,11991.336260,-75690.235202
548.973376,1332.370696,-10214.842000,-72932.291410
548.975930,24278.754898,13619.789333,-66803.527426
548.978485,16432.571912,-9326.594869,-71553.319513
548.981039,740.205942,-740.205942,-78601.398095
548.983593,-32124.937883,-888.247130,-81818.999186
548.986147,-3404.947333,4293.194464,-75996.673402
548.988702,5921.647536,148.041188,-75383.797003
548.991256,6365.771101,7846.182985,-69867.909418
548.993810,-4737.318029,10510.924376,-74464.482406
548.996364,-21169.889941,7105.977043,-79214.274493
548.998919,592.164754,-10214.842000,-77835.302597
549.001473,22946.384202,-4293.194464,-69714.690318
549.004027,11695.253884,2664.741391,-70787.224015
549.006581,-14656.077652,-2368.659014,-76456.330700
549.009136,-18357.107362,6217.729913,-77222.426198
549.011690,-12435.459826,8734.430116,-77222.426198
549.014244,20725.766376,5477.523971,-72625.853210
549.016798,2812.782580,-7550.100608,-74158.044206
549.019353,-26055.249158,1184.329507,-75383.797003
549.021907,-15988.448347,-9770.718434,-73698.386908
549.024465,-9178.553681,-6365.771101,-75843.454302
549.027023,10658.965565,6513.812290,-75537.016103
549.029581,8290.306550,11547.212695,-75230.577904
549.032139,-15248.242405,-9770.718434,-78141.740796
549.034697,444.123565,-14804.118840,-74464.482406
549.037254,20725.766376,17912.983796,-69101.813920
549.039812,6217.729913,14063.912898,-73085.510509
549.042370,9326.594869,-4293.194464,-77528.864398
549.044928,2220.617826,-10510.924376,-77988.521696
549.047486,9326.594869,7550.100608,-73851.606007
549.050044,8142.265362,11695.253884,-71859.757712
549.052602,15248.242405,7994.224174,-71553.319513
549.055160,14952.160028,-19245.354492,-74924.139704
549.057718,-13471.748144,-2812.782580,-81359.341888
549.060276,-23686.590144,7994.224174,-79520.712692
549.062834,2516.700203,17024.736666,-73545.167808
549.065392,888.247130,6809.894666,-70634.004916
549.067950,9326.594869,12435.459826,-72779.072310
549.070507,16432.571912,-9326.594869,-74924.139704
549.073065,21465.972318,-5477.523971,-75843.454302
549.075623,13619.789333,4737.318029,-76456.330700
549.078181,-6809.894666,-1776.494261,-73698.386908
549.080739,34197.514520,6365.771101,-67416.403824
549.083297,296.082377,-4885.359217,-72932.291410
549.085855,17024.736666,-8438.347739,-77069.207099
549.088413,-46929.056723,5181.441594,-81972.218286
549.090971,2516.700203,444.123565,-77222.426198
549.093529,-11547.212695,5773.606348,-72166.195912
549.096087,16432.571912,9918.759623,-70480.785816
549.098645,-32865.143825,9622.677246,-76303.111601
549.101203,2072.576638,-8586.388927,-77682.083497
549.103761,8586.388927,-9178.553681,-74770.920605
549.106318,13915.871710,12139.377449,-74617.701505
549.108876,-23094.425390,3256.906145,-77528.864398
549.111434,-20577.725188,15840.407159,-74924.139704
549.113992,22502.260637,-8586.388927,-74004.825107
549.116550,36714.214723,-12139.377449,-72012.976812
549.119108,-15248.242405,-3997.112087,-79827.150892
549.121666,-40859.367998,7254.018232,-79367.493593
549.124224,3256.906145,12731.542202,-70021.128517
549.126785,18357.107362,13767.830521,-66803.527426
549.129346,-3552.988522,-13915.871710,-76149.892501
549.131907,-37306.379477,3997.112087,-82738.313784
549.134467,13175.665768,10510.924376,-74464.482406
549.137028,13619.789333,3256.906145,-71859.757712
549.139589,9770.718434,-20577.725188,-73698.386908
549.142150,-7402.059420,7994.224174,-73851.606007
549.144711,13619.789333,12287.418637,-72625.853210
549.147272,8290.306550,11843.295072,-74158.044206
549.149833,24870.919651,-2516.700203,-74311.263306
549.152394,-9770.718434,-12435.459826,-76762.768900
549.154955,-888.247130,5773.606348,-73851.606007
549.157515,9178.553681,4885.359217,-72166.195912
549.160076,10807.006753,740.205942,-75996.673402
549.162637,-33901.432144,14063.912898,-79367.493593
549.165198,15100.201217,23094.425390,-72625.853210
549.167759,35529.885216,1036.288319,-65730.993728
549.170320,61881.216751,-28423.908173,-66497.089226
549.172881,-22058.137072,-15396.283594,-79827.150892
549.175442,-3552.988522,17468.860231,-78448.178995
549.178002,6661.853478,-1480.411884,-77835.302597
549.180563,37898.544230,13027.624579,-69101.813920
549.183124,20577.725188,-16728.654289,-74617.701505
549.185685,-40711.326810,3849.070898,-78754.617194
549.188246,9622.677246,6957.935855,-71706.538613
549.190807,46632.974346,4885.359217,-66956.746525
549.193368,2812.782580,-6809.894666,-75996.673402
549.195929,-29756.278868,5329.482782,-80746.465489
549.198490,-40119.162056,-4441.235652,-80440.027290
549.201050,20429.683999,4145.153275,-69255.033019
549.203611,0.000000,10066.800811,-72625.853210
549.206172,-13471.748144,17172.777854,-77528.864398
549.208733,-14952.160028,5329.482782,-79980.369991
549.211294,-8290.306550,-9326.594869,-75843.454302
549.213855,-15988.448347,3256.906145,-77835.302597
549.216416,-20577.725188,25907.207970,-70634.004916
549.218977,57884.104664,-10807.006753,-68948.594820
549.221538,-7550.100608,-7846.182985,-80133.589091
549.224098,-50630.086433,5329.482782,-83504.409282
549.226659,-148.041188,15248.242405,-71706.538613
549.229223,32124.937883,0.000000,-65730.993728
549.231786,-27387.619854,-3849.070898,-77069.207099
549.234349,-41747.615129,13175.665768,-79520.712692
549.236913,8882.471304,-7402.059420,-76915.987999
549.239476,9326.594869,-3404.947333,-76915.987999
549.242040,41007.409187,-3256.906145,-70480.785816
549.244603,-15988.448347,21910.095883,-73698.386908
549.247166,5033.400406,-2960.823768,-76609.549800
549.249730,10955.047942,-11399.171507,-75383.797003
549.252293,20429.683999,-2220.617826,-74464.482406
549.254857,6217.729913,18653.189738,-72932.291410
549.257420,12435.459826,3108.864956,-73698.386908
549.259983,-11399.171507,-740.205942,-76915.987999
549.262547,-7698.141797,-2368.659014,-74617.701505
549.265110,15100.201217,3701.029710,-75843.454302
549.267674,-5773.606348,10066.800811,-76149.892501
549.270237,-5033.400406,9918.759623,-76915.987999
549.272800,-11695.253884,15248.242405,-72166.195912
549.275364,24870.919651,5773.606348,-71400.100414
549.277927,-7846.182985,4885.359217,-76456.330700
549.280491,24722.878463,-11843.295072,-75077.358804
549.283054,16728.654289,9326.594869,-74311.263306
549.285617,4441.235652,1036.288319,-74004.825107
549.288181,10658.965565,3701.029710,-71553.319513
549.290744,15544.324782,-5477.523971,-71246.881314
549.293308,9770.718434,-3997.112087,-76303.111601
549.295871,-30792.567187,12139.377449,-78754.617194
549.298434,-4293.194464,-3701.029710,-77222.426198
549.300998,-6513.812290,2220.617826,-72932.291410
549.303561,14804.118840,444.123565,-71706.538613
549.306125,-17320.819043,15988.448347,-74924.139704
549.308688,2220.617826,7698.141797,-75537.016103
549.311251,-4145.153275,-15840.407159,-76456.330700
549.313815,19097.313304,148.041188,-71553.319513
549.316378,13175.665768,4293.194464,-68795.375720
549.318942,4885.359217,-2220.617826,-74924.139704
549.321505,-10362.883188,-2368.659014,-76609.549800
549.324068,11843.295072,-4589.276840,-76915.987999
549.326632,-19541.436869,1184.329507,-78754.617194
549.329195,-9918.759623,7994.224174,-75383.797003
549.331761,-9178.553681,-4441.235652,-71553.319513
549.334326,-5181.441594,1628.453072,-72625.853210
549.336892,-15988.448347,3256.906145,-76915.987999
549.339457,7994.224174,4293.194464,-77222.426198
549.342023,-16432.571912,-10362.883188,-78601.398095
549.344589,23538.548956,9326.594869,-72319.415011
549.347154,-2960.823768,12435.459826,-72932.291410
549.349720,9474.636058,-3108.864956,-74617.701505
549.352285,15100.201217,-12879.583391,-74924.139704
549.354851,11399.171507,9770.718434,-73698.386908
549.357416,14952.160028,7846.182985,-73851.606007
549.359982,296.082377,1184.329507,-74617.701505
549.362547,-3108.864956,1184.329507,-74617.701505
549.365113,-22354.219448,5477.523971,-77375.645298
549.367679,-7402.059420,9770.718434,-77222.426198
549.370244,5773.606348,14804.118840,-72932.291410
549.372810,41895.656317,-20281.642811,-69255.033019
549.375375,-4293.194464,-16728.654289,-77222.426198
549.377941,-19541.436869,-1480.411884,-80286.808190
549.380506,592.164754,20133.601622,-75383.797003
549.383072,32272.979071,6661.853478,-72472.634111
549.385638,21762.054695,-9474.636058,-75690.235202
549.388203,-22798.343014,444.123565,-80286.808190
549.390769,-3701.029710,14211.954086,-73391.948708
549.393334,35085.761651,8290.306550,-66497.089226
549.395900,45892.768404,-296.082377,-67876.061123
549.398465,-8882.471304,-7550.100608,-76762.768900
549.401031,-23686.590144,3701.029710,-79520.712692
549.403597,-39675.038491,592.164754,-79673.931792
549.406162,14804.118840,1924.535449,-71093.662214
549.408728,-4293.194464,7994.224174,-73851.606007
549.411293,-9622.677246,18653.189738,-76762.768900
549.413859,-11251.130318,-14359.995275,-78754.617194
549.416424,20577.725188,-8438.347739,-72319.415011
549.418990,23834.631332,-8734.430116,-72319.415011
549.421555,-35677.926404,3701.029710,-79980.369991
549.424121,-37454.420665,296.082377,-83197.971083
549.426687,-29608.237680,19245.354492,-83964.066581
549.429252,-12287.418637,14804.118840,-74311.263306
549.431818,11251.130318,9474.636058,-69561.471218
549.434384,-18653.189738,12583.501014,-73085.510509
549.436951,-17172.777854,-15840.407159,-76303.111601
549.439518,-592.164754,3108.864956,-74311.263306
549.442085,21021.848753,11103.089130,-72472.634111
549.444651,-6365.771101,740.205942,-78141.740796
549.447218,-5625.565159,-22354.219448,-78294.959896
549.449785,11547.212695,12139.377449,-71706.538613
549.452351,21021.848753,11991.336260,-69714.690318
549.454918,17024.736666,444.123565,-74004.825107
549.457485,10658.965565,-5773.606348,-75996.673402
549.460051,-10214.842000,-7994.224174,-77988.521696
549.462618,4145.153275,1480.411884,-74004.825107
549.465185,14656.077652,-740.205942,-74770.920605
549.467752,-29016.072926,2812.782580,-81665.780087
549.470318,-44264.315332,22502.260637,-78601.398095
549.472885,56107.610404,6513.812290,-66190.651027
549.475452,34345.555709,-11843.295072,-71859.757712
549.478018,-57736.063476,-2368.659014,-85343.038477
549.480585,-4589.276840,15248.242405,-74924.139704
549.483152,52554.621882,8438.347739,-67876.061123
549.485719,32124.937883,-9326.594869,-74004.825107
549.488285,-38342.667796,-8142.265362,-81972.218286
549.490852,-14804.118840,13323.706956,-76915.987999
549.493419,9622.677246,296.082377,-71706.538613
549.495985,31828.855506,-2220.617826,-70480.785816
549.498552,-27683.702231,4293.194464,-77682.083497
549.501119,-17764.942608,888.247130,-79061.055394
549.503685,-17172.777854,4589.276840,-75230.577904
549.506252,30792.567187,7402.059420,-69408.252119
549.508819,-23390.507767,3701.029710,-76149.892501
549.511386,1184.329507,-7402.059420,-76915.987999
549.513952,-5921.647536,-11251.130318,-75077.358804
549.516519,12879.583391,17616.901420,-71859.757712
549.519086,-3404.947333,1480.411884,-74158.044206
549.521652,16432.571912,7846.182985,-72166.195912
549.524219,14063.912898,-15248.242405,-72319.415011
549.526786,14804.118840,-8734.430116,-76762.768900
549.529352,-38046.585419,4441.235652,-81052.903688
549.531919,-7846.182985,17616.901420,-74004.825107
549.534486,4293.194464,-592.164754,-69561.471218
549.537054,9622.677246,-6809.894666,-72319.415011
549.539622,-41599.573940,3997.112087,-80746.465489
549.542190,7698.141797,11695.253884,-76456.330700
549.544758,-12139.377449,-7846.182985,-77375.645298
549.547326,39971.120868,2072.576638,-71400.100414
549.549893,-12731.542202,7994.224174,-75230.577904
549.552461,4737.318029,17320.819043,-73698.386908
549.555029,4441.235652,-5329.482782,-75537.016103
549.557597,11695.253884,-8290.306550,-76609.549800
549.560165,6217.729913,-888.247130,-74311.263306
549.562733,6365.771101,14359.995275,-73085.510509
549.565301,-2368.659014,10214.842000,-74464.482406
549.567869,3701.029710,10658.965565,-72932.291410
549.570437,47521.221476,-18209.066173,-70634.004916
549.573005,6809.894666,-12287.418637,-74617.701505
549.575573,5033.400406,-13027.624579,-73851.606007
549.578141,-17024.736666,12139.377449,-76915.987999
549.580709,-4589.276840,20725.766376,-75537.016103
549.583277,20725.766376,-2072.576638,-74770.920605
549.585845,25759.166782,2960.823768,-73391.948708
549.588412,5033.400406,-4589.276840,-75690.235202
549.590980,4441.235652,14656.077652,-72319.415011
549.593548,13323.706956,-7402.059420,-72779.072310
549.596116,2368.659014,-3849.070898,-75537.016103
549.598684,-20133.601622,9474.636058,-76915.987999
549.601252,-9474.636058,444.123565,-76762.768900
549.603820,1332.370696,3552.988522,-72779.072310
549.606388,-444.123565,3108.864956,-74004.825107
549.608956,-18357.107362,7698.141797,-75690.235202
549.611524,5477.523971,-12139.377449,-76915.987999
549.614092,-1332.370696,3997.112087,-74311.263306
549.616660,10362.883188,8586.388927,-72012.976812
549.619228,17320.819043,2368.659014,-69561.471218
549.621796,12583.501014,-9918.759623,-73851.606007
549.624364,-26351.331535,11399.171507,-77682.083497
549.626931,-5921.647536,6957.935855,-74924.139704
549.629499,25907.207970,-1628.453072,-70940.443115
549.632067,-18209.066173,3256.906145,-74924.139704
549.634635,-24130.713709,1036.288319,-74617.701505
549.637203,-2664.741391,-3997.112087,-71553.319513
549.639738,15988.448347,-3256.906145,-71553.319513
549.642273,0.000000,9622.677246,-76303.111601
549.644808,-23538.548956,5625.565159,-76762.768900
549.647343,-15100.201217,-12879.583391,-77682.083497
549.649878,21465.972318,-3404.947333,-71246.881314
549.652413,26351.331535,9474.636058,-68948.594820
549.654948,14952.160028,11547.212695,-72625.853210
549.657483,-6217.729913,-9918.759623,-78141.740796
549.660017,592.164754,-5625.565159,-75843.454302
549.662552,8586.388927,7402.059420,-72932.291410
549.665087,5329.482782,16136.489536,-72779.072310
549.667622,8438.347739,5181.441594,-72012.976812
549.670157,33457.308578,-23686.590144,-74464.482406
549.672692,-15396.283594,-14359.995275,-80899.684589
549.675227,-32865.143825,15396.283594,-76915.987999
549.677762,-14656.077652,17172.777854,-75230.577904
549.680297,53294.827824,3108.864956,-68335.718422
549.682831,15692.365970,-5477.523971,-73851.606007
549.685366,296.082377,-2220.617826,-78448.178995
549.687901,-9178.553681,4885.359217,-77835.302597
549.690436,19245.354492,-2368.659014,-71553.319513
549.692971,22798.343014,5921.647536,-68795.375720
549.695506,20133.601622,-3701.029710,-73545.167808
549.698041,-43672.150578,1036.288319,-79827.150892
549.700576,-444.123565,740.205942,-75690.235202
549.703111,-20725.766376,4589.276840,-76149.892501
549.705645,9326.594869,7550.100608,-72932.291410
549.708180,-13767.830521,3701.029710,-76149.892501
549.710715,-3404.947333,21614.013506,-76149.892501
549.713250,-5033.400406,-11251.130318,-74311.263306
549.715785,11103.089130,10658.965565,-68948.594820
549.718320,37158.338288,-9770.718434,-67569.622924
549.720855,-4885.359217,5773.606348,-72779.072310
549.723390,8142.265362,-740.205942,-75690.235202
549.725925,14211.954086,-6809.894666,-73851.606007
549.728459,-22798.343014,6069.688724,-75996.673402
549.730994,-7105.977043,-9918.759623,-74311.263306
549.733529,-26055.249158,6661.853478,-74617.701505
549.736064,-2960.823768,11991.336260,-72779.072310
549.738599,-9918.759623,5625.565159,-75690.235202
549.741141,-17764.942608,-2220.617826,-79061.055394
549.743683,18801.230927,-1776.494261,-74770.920605
549.746226,9474.636058,16876.695478,-72472.634111
549.748768,9178.553681,-1184.329507,-74311.263306
549.751310,16876.695478,-8290.306550,-74311.263306
549.753852,3404.947333,-444.123565,-74924.139704
549.756395,22058.137072,15100.201217,-71706.538613
549.758937,-592.164754,1924.535449,-74770.920605
549.761479,592.164754,-6365.771101,-75230.577904
549.764021,5329.482782,-11103.089130,-74311.263306
549.766564,15692.365970,11695.253884,-70480.785816
549.769106,80386.365301,2072.576638,-64198.802732
549.771648,25759.166782,-12435.459826,-74464.482406
549.774190,-43079.985824,-18061.024985,-84270.504780
549.776733,20281.642811,2516.700203,-70940.443115
549.779275,46781.015534,25611.125593,-66343.870127
549.781817,17172.777854,-2664.741391,-75996.673402
549.784359,-40563.285622,-20873.807564,-83044.751983
549.786902,17616.901420,12435.459826,-72779.072310
549.789444,36566.173535,8734.430116,-66343.870127
549.791986,11695.253884,-7105.977043,-75537.016103
549.794528,-61733.175563,888.247130,-83351.190182
549.797071,-8142.265362,-3404.947333,-76762.768900
549.799613,6365.771101,8882.471304,-69714.690318
549.802155,31384.731941,10362.883188,-69561.471218
549.804697,-14211.954086,15692.365970,-74770.920605
549.807240,1184.329507,888.247130,-77988.521696
549.809782,-13767.830521,-16580.613101,-78141.740796
549.812324,10807.006753,3849.070898,-72166.195912
549.814866,-27683.702231,11991.336260,-75537.016103
549.817409,-444.123565,14952.160028,-73238.729609
549.819951,2960.823768,-1776.494261,-74924.139704
549.822493,22354.219448,2516.700203,-71553.319513
549.825035,-9918.759623,-7254.018232,-76762.768900
549.827578,-19541.436869,-9918.759623,-76303.111601
549.830120,-16432.571912,-11991.336260,-74770.920605
549.832662,-12287.418637,15840.407159,-73085.510509
549.835204,14952.160028,1332.370696,-75537.016103
549.837747,-34493.596897,-444.123565,-79980.369991
549.840289,30348.443622,1332.370696,-74004.825107
549.842837,-5329.482782,17616.901420,-73085.510509
549.845386,25611.125593,-6069.688724,-73545.167808
549.847935,8586.388927,-11103.089130,-74158.044206
549.850484,10955.047942,6809.894666,-73391.948708
549.853032,10066.800811,11547.212695,-72779.072310
549.855581,3997.112087,2664.741391,-75537.016103
549.858130,-5921.647536,-4293.194464,-77375.645298
549.860678,1628.453072,1332.370696,-76303.111601
549.863227,4737.318029,2072.576638,-75230.577904
549.865776,4441.235652,5477.523971,-74770.920605
549.868324,-1776.494261,13915.871710,-74311.263306
549.870873,5921.647536,7105.977043,-73085.510509
549.873422,16876.695478,-5477.523971,-73851.606007
549.875970,12583.501014,-740.205942,-75690.235202
549.878519,14211.954086,6365.771101,-74617.701505
549.881068,5921.647536,-3849.070898,-76303.111601
549.883616,7846.182985,-148.041188,-73698.386908
549.886165,22502.260637,-1184.329507,-70327.566716
549.888714,10214.842000,-2516.700203,-74924.139704
549.891262,-34493.596897,7994.224174,-79061.055394
549.893811,-12879.583391,3552.988522,-77988.521696
549.896360,-28868.031738,-1628.453072,-77375.645298
549.898909,10214.842000,3256.906145,-72012.976812
549.901457,-18209.066173,17764.942608,-75843.454302
549.904006,7105.977043,4293.194464,-76149.892501
549.906555,-888.247130,-11103.089130,-76762.768900
549.909103,1480.411884,5033.400406,-73545.167808
549.911652,-25611.125593,13323.706956,-74311.263306
549.914201,20429.683999,7254.018232,-70327.566716
549.916749,22650.301825,-20429.683999,-74158.044206
549.919298,-21169.889941,2664.741391,-80440.027290
549.921847,-32865.143825,9178.553681,-78141.740796
549.924395,-18801.230927,17172.777854,-73085.510509
549.926944,22798.343014,-148.041188,-66956.746525
549.929493,2812.782580,-5329.482782,-73698.386908
549.932041,-20725.766376,7254.018232,-79214.274493
549.934590,-26203.290347,-2368.659014,-80133.589091
549.937139,32865.143825,-6217.729913,-72012.976812
549.939688,28571.949361,10362.883188,-70480.785816
549.942236,-2220.617826,7402.059420,-76303.111601
549.944790,3108.864956,-10658.965565,-76915.987999
549.947344,7105.977043,-6513.812290,-74004.825107
549.949898,27831.743419,9918.759623,-71093.662214
549.952451,-148.041188,10658.965565,-74617.701505
549.955005,740.205942,5033.400406,-76149.892501
549.957559,9326.594869,-6069.688724,-74924.139704
549.960113,17172.777854,-1036.288319,-74158.044206
549.962667,6217.729913,-148.041188,-75537.016103
549.965221,2368.659014,-11251.130318,-76456.330700
549.967774,-2220.617826,0.000000,-74770.920605
549.970328,26351.331535,17024.736666,-71859.757712
549.972882,7550.100608,1628.453072,-75690.235202
549.975436,9178.553681,-8142.265362,-76149.892501
549.977990,18209.066173,1776.494261,-73698.386908
549.980544,-3256.906145,5181.441594,-74924.139704
549.983097,-8882.471304,8142.265362,-75383.797003
549.985651,-13175.665768,3552.988522,-76609.549800
549.988205,2072.576638,-14508.036463,-74311.263306
549.990759,1628.453072,10658.965565,-71400.100414
549.993313,-7846.182985,4293.194464,-74311.263306
549.995866,-21910.095883,-3552.988522,-76762.768900
549.998420,-2812.782580,-12879.583391,-78141.740796
550.000974,-7105.977043,16284.530724,-75383.797003
550.003528,5329.482782,2664.741391,-74617.701505
550.006082,-16876.695478,-296.082377,-77069.207099
550.008636,-36270.091158,8586.388927,-77528.864398
550.011189,5921.647536,-2960.823768,-74924.139704
550.013743,-15396.283594,6365.771101,-79673.931792
550.016297,-15396.283594,10362.883188,-79827.150892
550.018851,-1924.535449,148.041188,-73238.729609
550.021405,-10807.006753,3404.947333,-73238.729609
550.023958,-19245.354492,9326.594869,-74770.920605
550.026512,-12583.501014,296.082377,-77069.207099
550.029066,-13323.706956,2664.741391,-76915.987999
550.031620,24870.919651,7402.059420,-73238.729609
550.034174,6513.812290,9918.759623,-74617.701505
550.036728,7105.977043,-13471.748144,-76303.111601
550.039281,17024.736666,-3701.029710,-73085.510509
550.041835,18801.230927,9622.677246,-70480.785816
550.044389,23686.590144,7846.182985,-71706.538613
550.046914,2664.741391,4885.359217,-75230.577904
550.049439,-12435.459826,740.205942,-78907.836294
550.051964,-10807.006753,2072.576638,-77835.302597
550.054489,3849.070898,9622.677246,-71859.757712
550.057013,50185.962868,13471.748144,-65424.555529
550.059538,36270.091158,-13175.665768,-71553.319513
550.062063,-37158.338288,-24574.837274,-83657.628382
550.064588,-1036.288319,8734.430116,-75537.016103
550.067113,42931.944636,18209.066173,-67569.622924
550.069638,26943.496289,6365.771101,-72166.195912
550.072163,-11843.295072,-20429.683999,-81206.122788
550.074687,-29312.155303,6809.894666,-79061.055394
550.077212,32272.979071,12879.583391,-67569.622924
550.079737,20873.807564,12731.542202,-67569.622924
550.082262,28423.908173,-5181.441594,-69867.909418
550.084787,-23982.672521,888.247130,-77375.645298
550.087312,-42339.779882,-3552.988522,-81818.999186
550.089837,-8142.265362,888.247130,-74311.263306
550.092362,12139.377449,7105.977043,-73851.606007
550.094886,-7846.182985,14063.912898,-75690.235202
550.097411,-4737.318029,148.041188,-77375.645298
550.099936,8438.347739,2812.782580,-69867.909418
550.102461,27979.784608,-9474.636058,-69101.813920
550.104986,2960.823768,-5329.482782,-71553.319513
550.107511,1924.535449,-8142.265362,-72012.976812
550.110036,-15248.242405,-5477.523971,-78294.959896
550.112560,-4293.194464,-2664.741391,-73238.729609
550.115085,-9474.636058,-2368.659014,-72932.291410
550.117610,-17764.942608,16728.654289,-74770.920605
550.120135,-13915.871710,-6365.771101,-77835.302597
550.122660,-13915.871710,3552.988522,-76456.330700
550.125185,29904.320057,2664.741391,-72625.853210
550.127710,-1628.453072,15100.201217,-75537.016103
550.130235,17320.819043,-15988.448347,-74924.139704
550.132759,19541.436869,-2664.741391,-72779.072310
550.135284,19837.519246,6957.935855,-71246.881314
550.137809,8734.430116,11547.212695,-73238.729609
550.140334,-444.123565,7402.059420,-75843.454302
550.142859,-4145.153275,-5033.400406,-76456.330700
550.145384,-296.082377,6661.853478,-74158.044206
550.147918,39971.120868,-1480.411884,-70174.347617
550.150453,10066.800811,3997.112087,-72932.291410
550.152988,-2812.782580,296.082377,-75077.358804
550.155522,20725.766376,-8438.347739,-71859.757712
550.158057,22946.384202,4293.194464,-74158.044206
550.160591,12139.377449,-5033.400406,-76456.330700
550.163126,-1776.494261,7698.141797,-76149.892501
550.165661,33457.308578,-2812.782580,-72012.976812
550.168195,-4293.194464,-2516.700203,-75077.358804
550.170730,1332.370696,5329.482782,-75230.577904
550.173265,-15988.448347,-2812.782580,-76915.987999
550.175799,888.247130,-2664.741391,-73851.606007
550.178334,8882.471304,9178.553681,-71706.538613
550.180868,-17468.860231,4441.235652,-76762.768900
550.183403,-28127.825796,-6957.935855,-78448.178995
550.185938,-10658.965565,-1184.329507,-77222.426198
550.188472,-592.164754,14359.995275,-74158.044206
550.191007,9030.512492,8734.430116,-74311.263306
550.193541,16580.613101,-4441.235652,-70021.128517
550.196076,18949.272115,-17172.777854,-72625.853210
550.198611,-31680.814318,16432.571912,-77988.521696
550.201145,-25463.084405,14063.912898,-77528.864398
550.203680,-8438.347739,10955.047942,-76149.892501
550.206215,-1776.494261,10214.842000,-71400.100414
550.208749,8882.471304,-5329.482782,-71706.538613
550.211284,-33901.432144,-3108.864956,-76762.768900
550.213818,6069.688724,9622.677246,-74158.044206
550.216353,-15692.365970,-6957.935855,-76762.768900
550.218888,33309.267390,0.000000,-73698.386908
550.221422,-2220.617826,10362.883188,-74770.920605
550.223957,12287.418637,7846.182985,-75383.797003
550.226492,12583.501014,-17616.901420,-75230.577904
550.229026,12139.377449,3701.029710,-73238.729609
550.231561,13471.748144,-296.082377,-72779.072310
550.234095,5329.482782,12731.542202,-72932.291410
550.236630,-5921.647536,7994.224174,-77988.521696
550.239165,-7846.182985,6365.771101,-75843.454302
550.241699,42339.779882,-296.082377,-68182.499322
550.244234,44856.480085,-14952.160028,-68182.499322
550.246768,11399.171507,-20873.807564,-77528.864398
550.249311,-41895.656317,5329.482782,-80746.465489
550.251853,34345.555709,13323.706956,-70940.443115
550.254396,30200.402434,4441.235652,-70634.004916
550.256938,5773.606348,-13619.789333,-77988.521696
550.259481,-22650.301825,7402.059420,-78448.178995
550.262023,25018.960840,5921.647536,-70327.566716
550.264566,20429.683999,-5921.647536,-71706.538613
550.267108,-3849.070898,11695.253884,-73391.948708
550.269651,-14656.077652,-5477.523971,-78141.740796
550.272193,-36566.173535,5329.482782,-78601.398095
550.274736,11991.336260,1332.370696,-72166.195912
550.277278,-3404.947333,12287.418637,-72166.195912
550.279821,14359.995275,-11251.130318,-76609.549800
550.282363,-10807.006753,-148.041188,-77528.864398
550.284906,-6365.771101,14211.954086,-75843.454302
550.287448,888.247130,16432.571912,-70021.128517
550.289991,13915.871710,6513.812290,-70327.566716
550.292533,20133.601622,-4589.276840,-71246.881314
550.295076,11695.253884,5181.441594,-72932.291410
550.297618,-6365.771101,-12583.501014,-74924.139704
550.300161,-24130.713709,-4589.276840,-78141.740796
550.302703,-23242.466579,10066.800811,-74770.920605
550.305246,13027.624579,888.247130,-72472.634111
550.307788,-18209.066173,1480.411884,-75537.016103
550.310331,16580.613101,7105.977043,-75537.016103
550.312873,-9030.512492,3404.947333,-78141.740796
550.315416,30496.484810,-7105.977043,-72779.072310
550.317958,24722.878463,-3256.906145,-70327.566716
550.320501,20133.601622,14063.912898,-70634.004916
550.323043,4145.153275,-1184.329507,-75077.358804
550.325586,-8586.388927,-5329.482782,-75230.577904
550.328128,-5921.647536,-10955.047942,-78141.740796
550.330671,3997.112087,-3404.947333,-77375.645298
550.333213,-42043.697506,14952.160028,-79673.931792
550.335756,26647.413912,23834.631332,-67109.965625
550.338298,76685.335591,-25018.960840,-64505.240932
550.340841,-9622.677246,-16432.571912,-79980.369991
550.343383,-29312.155303,4145.153275,-81359.341888
550.345926,27979.784608,14804.118840,-71246.881314
550.348468,34789.679274,-8290.306550,-70480.785816
550.350985,22206.178260,5033.400406,-74158.044206
550.353502,-33013.185013,592.164754,-79980.369991
550.356019,-16432.571912,0.000000,-80286.808190
550.358535,-32865.143825,5625.565159,-77835.302597
550.361052,20577.725188,-2812.782580,-72012.976812
550.363569,-2516.700203,11251.130318,-72319.415011
550.366086,-2516.700203,5329.482782,-75537.016103
550.368603,-25907.207970,-8142.265362,-77682.083497
550.371119,12879.583391,-12731.542202,-75383.797003
550.373636,-8882.471304,5477.523971,-74617.701505
550.376153,10362.883188,4145.153275,-74617.701505
550.378670,-592.164754,-5181.441594,-75230.577904
550.381187,-10955.047942,2516.700203,-76456.330700
550.383703,-24574.837274,10510.924376,-77222.426198
550.386220,-7698.141797,15544.324782,-74464.482406
550.388737,13175.665768,-2516.700203,-71859.757712
550.391254,-18357.107362,0.000000,-75383.797003
550.393771,-28719.990550,5181.441594,-77222.426198
550.396287,-23538.548956,1924.535449,-76915.987999
550.398804,8882.471304,4737.318029,-72472.634111
550.401321,15248.242405,6809.894666,-73238.729609
550.403838,5181.441594,-740.205942,-77988.521696
550.406355,3108.864956,-10807.006753,-76456.330700
550.408871,35974.008781,6809.894666,-69561.471218
550.411388,22650.301825,13767.830521,-69867.909418
550.413905,11843.295072,-2072.576638,-74617.701505
550.416422,-19097.313304,-9474.636058,-77528.864398
550.418939,-6069.688724,2368.659014,-79061.055394
550.421455,-9622.677246,1924.535449,-76609.549800
550.423972,17764.942608,17912.983796,-72012.976812
550.426489,19541.436869,-444.123565,-71246.881314
550.429006,10362.883188,148.041188,-71246.881314
550.431523,16432.571912,-13767.830521,-73238.729609
550.434039,8142.265362,6513.812290,-75077.358804
550.436556,26795.455100,-5329.482782,-74770.920605
550.439073,1480.411884,-1184.329507,-76149.892501
550.441590,32421.020260,4145.153275,-72319.415011
550.444107,8438.347739,2516.700203,-72012.976812
550.446623,-740.205942,-148.041188,-75383.797003
550.449140,-21465.972318,2220.617826,-78141.740796
550.451669,-14952.160028,-5033.400406,-77988.521696
550.454198,-6661.853478,148.041188,-74311.263306
550.456726,12583.501014,14656.077652,-72012.976812
550.459255,-14359.995275,-296.082377,-74924.139704
550.461784,2220.617826,-14211.954086,-76149.892501
550.464313,-5477.523971,-7105.977043,-74158.044206
550.466841,7105.977043,3108.864956,-74770.920605
550.469370,-15396.283594,2664.741391,-77222.426198
550.471899,-12139.377449,-296.082377,-75230.577904
550.474428,10955.047942,-4293.194464,-73851.606007
550.476956,-10807.006753,1776.494261,-78601.398095
550.479485,-24130.713709,296.082377,-76149.892501
550.482014,-740.205942,-11251.130318,-74464.482406
550.484543,-19245.354492,10807.006753,-73238.729609
550.487071,5181.441594,3552.988522,-74158.044206
550.489600,-35381.844028,-5773.606348,-78294.959896
550.492129,35825.967593,2516.700203,-73391.948708
550.494657,-3108.864956,12435.459826,-75537.016103
550.497186,15100.201217,-2220.617826,-76149.892501
550.499715,8586.388927,-13323.706956,-74617.701505
550.502244,22650.301825,10510.924376,-70327.566716
