#time,accel_x,accel_y,accel_z
557.992059,18061.024985,-44856.480085,-73391.948708
557.994597,18801.230927,-31828.855506,-72319.415011
557.997134,592.164754,-15396.283594,-69561.471218
557.999672,9030.512492,-2960.823768,-77069.207099
558.002209,-16876.695478,-6661.853478,-78448.178995
558.004747,-740.205942,-7994.224174,-74924.139704
558.007284,14211.954086,-740.205942,-72779.072310
558.009822,740.205942,2516.700203,-75077.358804
558.012359,-12583.501014,-12139.377449,-77069.207099
558.014897,6661.853478,-9770.718434,-72779.072310
558.017434,-444.123565,740.205942,-75996.673402
558.019972,-19837.519246,-296.082377,-77528.864398
558.022510,-2812.782580,14656.077652,-75383.797003
558.025047,9178.553681,16876.695478,-73238.729609
558.027585,2960.823768,8586.388927,-73851.606007
558.030122,-1480.411884,-3552.988522,-76303.111601
558.032660,-9622.677246,-3256.906145,-76609.549800
558.035197,7105.977043,21169.889941,-73238.729609
558.037735,3701.029710,10955.047942,-75077.358804
558.040272,21910.095883,-3108.864956,-71859.757712
558.042810,8438.347739,-2368.659014,-72319.415011
558.045376,-5921.647536,13027.624579,-75230.577904
558.047944,-148.041188,-8882.471304,-77222.426198
558.050512,1480.411884,17764.942608,-75690.235202
558.053081,-33605.349767,39082.873738,-83351.190182
558.055649,-27683.702231,17616.901420,-80899.684589
558.058217,-18801.230927,888.247130,-78448.178995
558.060785,29904.320057,-25759.166782,-65884.212828
558.063353,36418.132346,-26499.372724,-67569.622924
558.065922,-12583.501014,10362.883188,-78601.398095
558.068490,-39675.038491,11547.212695,-84270.504780
558.071058,-6957.935855,-2072.576638,-75996.673402
558.073626,23390.507767,8438.347739,-69714.690318
558.076195,4589.276840,26647.413912,-74924.139704
558.078763,-15840.407159,12287.418637,-80593.246390
558.081331,-888.247130,-2664.741391,-76609.549800
558.083899,22354.219448,7402.059420,-72472.634111
558.086467,6069.688724,9770.718434,-75383.797003
558.089036,-6809.894666,2220.617826,-76762.768900
558.091604,-1776.494261,-12879.583391,-77222.426198
558.094172,4737.318029,15692.365970,-75077.358804
558.096740,6661.853478,9622.677246,-74924.139704
558.099309,3849.070898,10807.006753,-74924.139704
558.101877,3404.947333,-740.205942,-76609.549800
558.104445,148.041188,-12731.542202,-76149.892501
558.107013,2220.617826,9770.718434,-75690.235202
558.109582,2812.782580,11695.253884,-75537.016103
558.112150,-1628.453072,-14508.036463,-75843.454302
558.114718,16728.654289,-7402.059420,-73238.729609
558.117286,4145.153275,2516.700203,-73545.167808
558.119854,-7994.224174,6069.688724,-74464.482406
558.122423,-12139.377449,-9622.677246,-77222.426198
558.124991,-9326.594869,-5477.523971,-74770.920605
558.127559,14656.077652,6365.771101,-72932.291410
558.130127,7254.018232,-1184.329507,-74924.139704
558.132696,-6809.894666,-10807.006753,-75537.016103
558.135264,-5329.482782,4885.359217,-75077.358804
558.137832,5329.482782,4737.318029,-73851.606007
558.140400,14508.036463,-6365.771101,-73391.948708
558.142968,-1628.453072,-15248.242405,-74770.920605
558.145537,-444.123565,-888.247130,-76915.987999
558.148123,-6365.771101,-15248.242405,-75843.454302
558.150710,8290.306550,-25611.125593,-73545.167808
558.153296,22058.137072,-13323.706956,-71553.319513
558.155883,11695.253884,-26499.372724,-73391.948708
558.158469,21465.972318,-29904.320057,-73851.606007
558.161056,5033.400406,-13619.789333,-75230.577904
558.163642,3108.864956,-21910.095883,-75537.016103
558.166229,3108.864956,-24130.713709,-77222.426198
558.168815,8882.471304,-3997.112087,-74004.825107
558.171402,148.041188,1184.329507,-77375.645298
558.173988,444.123565,-6661.853478,-76303.111601
558.176575,4589.276840,-4293.194464,-76609.549800
558.179161,-9918.759623,-4441.235652,-77375.645298
558.181748,-7994.224174,-5625.565159,-75230.577904
558.184334,4737.318029,1924.535449,-75690.235202
558.186921,10807.006753,7550.100608,-74924.139704
558.189507,-2812.782580,2516.700203,-76456.330700
558.192094,-15544.324782,-10955.047942,-78601.398095
558.194680,-9622.677246,2072.576638,-76456.330700
558.197267,3701.029710,13767.830521,-76149.892501
558.199853,148.041188,7105.977043,-75077.358804
558.202440,-1776.494261,-15840.407159,-76609.549800
558.205026,-3256.906145,-11399.171507,-75383.797003
558.207613,-3849.070898,15100.201217,-75383.797003
558.210199,-6513.812290,10658.965565,-76456.330700
558.212786,-148.041188,7550.100608,-76762.768900
558.215372,6661.853478,8438.347739,-74464.482406
558.217959,3701.029710,3997.112087,-73851.606007
558.220545,6069.688724,-9918.759623,-74464.482406
558.223132,3404.947333,-2368.659014,-74311.263306
558.225718,1776.494261,8438.347739,-76609.549800
558.228305,-444.123565,14952.160028,-75537.016103
558.230891,8438.347739,-1776.494261,-75690.235202
558.233478,-8438.347739,-6217.729913,-75230.577904
558.236064,4885.359217,10807.006753,-73391.948708
558.238651,7105.977043,11399.171507,-73391.948708
558.241237,13915.871710,-7994.224174,-75996.673402
558.243823,2220.617826,-9474.636058,-75690.235202
558.246410,5921.647536,-444.123565,-71553.319513
558.248996,12731.542202,-10362.883188,-72319.415011
558.251589,30496.484810,-25759.166782,-69714.690318
558.254182,10362.883188,-5921.647536,-74004.825107
558.256775,-22946.384202,3552.988522,-82278.656485
558.259367,-9326.594869,-15988.448347,-76149.892501
558.261960,23686.590144,-20429.683999,-68335.718422
558.264553,4589.276840,1776.494261,-74311.263306
558.267146,-28423.908173,10214.842000,-82891.532884
558.269738,-17172.777854,-7402.059420,-80286.808190
558.272331,9178.553681,9178.553681,-74311.263306
558.274924,-1480.411884,24722.878463,-75537.016103
558.277517,-9178.553681,2368.659014,-76456.330700
558.280109,-15544.324782,5329.482782,-76915.987999
558.282702,5477.523971,7698.141797,-75843.454302
558.285295,2072.576638,4145.153275,-76303.111601
558.287887,-1480.411884,-4145.153275,-77069.207099
558.290480,-4589.276840,13767.830521,-75537.016103
558.293073,8734.430116,1332.370696,-74311.263306
558.295666,14656.077652,7402.059420,-74311.263306
558.298258,-1776.494261,1628.453072,-77222.426198
558.300851,-7402.059420,-5773.606348,-78601.398095
558.303444,2072.576638,14063.912898,-74770.920605
558.306037,6069.688724,-1332.370696,-74004.825107
558.308629,-2072.576638,-18653.189738,-76303.111601
558.311222,5033.400406,-11103.089130,-76149.892501
558.313815,4589.276840,2664.741391,-76303.111601
558.316408,-888.247130,7105.977043,-76149.892501
558.319000,-10066.800811,-6661.853478,-75996.673402
558.321593,-888.247130,1924.535449,-72932.291410
558.324186,6957.935855,4589.276840,-73698.386908
558.326779,740.205942,-5921.647536,-76609.549800
558.329371,-592.164754,-6217.729913,-75690.235202
558.331964,296.082377,6661.853478,-74158.044206
558.334557,5625.565159,-2220.617826,-72625.853210
558.337149,-444.123565,5033.400406,-73391.948708
558.339742,-6809.894666,2072.576638,-75537.016103
558.342335,-3701.029710,-14508.036463,-76762.768900
558.344928,6957.935855,-22502.260637,-74311.263306
558.347520,5181.441594,-23242.466579,-73085.510509
558.350113,-23390.507767,17172.777854,-77835.302597
558.352706,-31384.731941,7254.018232,-81818.999186
558.355302,-14656.077652,19097.313304,-77375.645298
558.357898,2812.782580,49297.715737,-76456.330700
558.360494,2664.741391,5329.482782,-76609.549800
558.363090,888.247130,-8290.306550,-73545.167808
558.365686,7698.141797,-11991.336260,-73238.729609
558.368282,-6069.688724,8586.388927,-77682.083497
558.370879,-13915.871710,-2516.700203,-79827.150892
558.373475,-13471.748144,-1480.411884,-78601.398095
558.376071,7994.224174,2664.741391,-74617.701505
558.378667,11399.171507,6513.812290,-72625.853210
558.381263,-10955.047942,-13619.789333,-76609.549800
558.383859,0.000000,-296.082377,-76149.892501
558.386455,16876.695478,-10066.800811,-74004.825107
558.389051,2516.700203,-12287.418637,-76456.330700
558.391647,-18209.066173,-4441.235652,-77835.302597
558.394243,1332.370696,12139.377449,-73698.386908
558.396839,22946.384202,-1036.288319,-72932.291410
558.399436,-1924.535449,-19985.560434,-75690.235202
558.402032,2072.576638,7254.018232,-74311.263306
558.404628,2664.741391,11399.171507,-75383.797003
558.407224,-10214.842000,1480.411884,-76762.768900
558.409820,2220.617826,3404.947333,-74464.482406
558.412416,-2960.823768,7698.141797,-73851.606007
558.415012,2960.823768,-444.123565,-75077.358804
558.417608,8290.306550,3256.906145,-74924.139704
558.420204,4145.153275,11103.089130,-75230.577904
558.422800,-3701.029710,15396.283594,-74464.482406
558.425397,12879.583391,1184.329507,-73238.729609
558.427993,-4737.318029,-8882.471304,-75843.454302
558.430589,-888.247130,8734.430116,-75537.016103
558.433185,9918.759623,15840.407159,-74464.482406
558.435781,16876.695478,24426.796086,-72012.976812
558.438377,444.123565,-592.164754,-76915.987999
558.440973,-11843.295072,28275.866984,-76762.768900
558.443569,-11991.336260,-3108.864956,-77375.645298
558.446165,33161.226202,592.164754,-69867.909418
558.448761,21910.095883,-21317.931130,-71400.100414
558.451357,296.082377,2220.617826,-76609.549800
558.453954,-28127.825796,18801.230927,-81052.903688
558.456550,-17024.736666,28868.031738,-76609.549800
558.459147,16136.489536,7254.018232,-72779.072310
558.461745,30940.608376,4885.359217,-71246.881314
558.464343,-16432.571912,4737.318029,-79520.712692
558.466941,-15396.283594,-4737.318029,-78601.398095
558.469538,-10362.883188,4145.153275,-76303.111601
558.472136,20873.807564,8438.347739,-70940.443115
558.474734,3108.864956,148.041188,-76915.987999
558.477332,-9918.759623,888.247130,-78294.959896
558.479929,-5181.441594,6365.771101,-76762.768900
558.482527,11991.336260,5033.400406,-72932.291410
558.485125,2516.700203,5181.441594,-75230.577904
558.487723,-13619.789333,-8586.388927,-78294.959896
558.490320,9770.718434,-296.082377,-75383.797003
558.492918,13915.871710,10214.842000,-73698.386908
558.495516,2220.617826,-18061.024985,-74924.139704
558.498114,-4589.276840,-13323.706956,-73851.606007
558.500711,9918.759623,-148.041188,-74617.701505
558.503309,-3256.906145,1184.329507,-77069.207099
558.505907,-8290.306550,2812.782580,-76915.987999
558.508505,8882.471304,-3849.070898,-73698.386908
558.511102,13915.871710,5773.606348,-73085.510509
558.513700,-8586.388927,-8142.265362,-76149.892501
558.516298,-1036.288319,-11399.171507,-76762.768900
558.518896,5329.482782,2220.617826,-75077.358804
558.521493,3552.988522,6809.894666,-74617.701505
558.524091,-2072.576638,-3849.070898,-74311.263306
558.526689,-296.082377,-9622.677246,-73391.948708
558.529287,-148.041188,-296.082377,-75843.454302
558.531884,-14359.995275,-4145.153275,-78294.959896
558.534482,-6069.688724,-9030.512492,-76609.549800
558.537080,-6809.894666,12583.501014,-76762.768900
558.539678,-18653.189738,7550.100608,-76915.987999
558.542275,-17912.983796,1628.453072,-75690.235202
558.544873,3997.112087,9918.759623,-74158.044206
558.547471,31384.731941,-4293.194464,-70940.443115
558.550069,27831.743419,-17172.777854,-72932.291410
558.552666,10362.883188,-4589.276840,-73391.948708
558.555264,11399.171507,-4441.235652,-75077.358804
558.557862,7550.100608,-9770.718434,-73851.606007
558.560460,11843.295072,-2812.782580,-74617.701505
558.563055,7994.224174,-2220.617826,-75690.235202
558.565651,-2812.782580,740.205942,-75537.016103
558.568247,-4589.276840,-11695.253884,-75230.577904
558.570843,9326.594869,-3404.947333,-73545.167808
558.573438,6069.688724,-7254.018232,-75690.235202
558.576034,-1480.411884,-12435.459826,-77835.302597
558.578630,-6365.771101,-4293.194464,-77528.864398
558.581226,-444.123565,12139.377449,-74311.263306
558.583821,7402.059420,-1184.329507,-74924.139704
558.586417,-2812.782580,-12435.459826,-75230.577904
558.589013,6513.812290,6661.853478,-75230.577904
558.591609,-888.247130,12879.583391,-74924.139704
558.594204,-6809.894666,-1776.494261,-77682.083497
558.596800,592.164754,6365.771101,-75383.797003
558.599396,-2072.576638,11103.089130,-74311.263306
558.601992,11991.336260,-2516.700203,-73851.606007
558.604587,15100.201217,-1628.453072,-73851.606007
558.607183,4441.235652,5921.647536,-75690.235202
558.609779,-4589.276840,13027.624579,-76149.892501
558.612375,4885.359217,-1480.411884,-74617.701505
558.614970,-2368.659014,-9030.512492,-73851.606007
558.617566,7402.059420,6809.894666,-73545.167808
558.620162,-2664.741391,17468.860231,-77835.302597
558.622758,-3256.906145,24130.713709,-73698.386908
558.625353,-7994.224174,-7550.100608,-73698.386908
558.627949,888.247130,8142.265362,-73391.948708
558.630545,-27091.537477,6809.894666,-80440.027290
558.633141,-24722.878463,-3849.070898,-81359.341888
558.635736,10362.883188,17024.736666,-72625.853210
558.638332,10510.924376,43968.232955,-72012.976812
558.640928,-740.205942,18949.272115,-75843.454302
558.643524,6069.688724,18061.024985,-75383.797003
558.646119,5773.606348,20577.725188,-73698.386908
558.648715,14656.077652,9326.594869,-74004.825107
558.651311,5181.441594,-16580.613101,-76762.768900
558.653907,-6217.729913,592.164754,-73698.386908
558.656502,1332.370696,4441.235652,-73851.606007
558.659098,6809.894666,15396.283594,-74311.263306
558.661694,6365.771101,-3108.864956,-75690.235202
558.664290,3404.947333,3256.906145,-74004.825107
558.666884,19097.313304,296.082377,-72472.634111
558.669478,11695.253884,9918.759623,-74464.482406
558.672072,-13175.665768,-4293.194464,-77988.521696
558.674666,-2812.782580,-6809.894666,-77069.207099
558.677260,16432.571912,22946.384202,-72472.634111
558.679854,8438.347739,-8734.430116,-74004.825107
558.682448,-4145.153275,-23390.507767,-74004.825107
558.685042,6069.688724,148.041188,-76303.111601
558.687636,1036.288319,4145.153275,-76762.768900
558.690230,-4293.194464,9474.636058,-77835.302597
558.692824,3256.906145,-2516.700203,-74464.482406
558.695418,14211.954086,1184.329507,-72472.634111
558.698012,2368.659014,-5329.482782,-74311.263306
558.700606,-1924.535449,-10066.800811,-76762.768900
558.703200,2516.700203,-740.205942,-75843.454302
558.705794,5033.400406,2812.782580,-75077.358804
558.708388,1924.535449,-3997.112087,-74158.044206
558.710982,-148.041188,1924.535449,-74158.044206
558.713576,-2220.617826,-12731.542202,-75537.016103
558.716170,-1628.453072,5477.523971,-76149.892501
558.718764,7254.018232,7105.977043,-76149.892501
558.721358,11547.212695,-4293.194464,-72319.415011
558.723952,19541.436869,-2072.576638,-70174.347617
558.726547,21169.889941,5625.565159,-71706.538613
558.729141,9178.553681,-14211.954086,-76149.892501
558.731735,-7402.059420,-30200.402434,-78141.740796
558.734329,14359.995275,6069.688724,-73085.510509
558.736923,19097.313304,6365.771101,-74464.482406
558.739517,-3849.070898,-13915.871710,-74617.701505
558.742111,-8882.471304,-6957.935855,-75843.454302
558.744705,4737.318029,6069.688724,-74464.482406
558.747299,3849.070898,0.000000,-75537.016103
558.749890,4145.153275,-8142.265362,-75537.016103
558.752482,-3552.988522,-15248.242405,-75537.016103
558.755074,1036.288319,7994.224174,-72472.634111
558.757665,24574.837274,13027.624579,-71859.757712
558.760257,9178.553681,-17172.777854,-75843.454302
558.762849,-17320.819043,-15396.283594,-77682.083497
558.765440,2812.782580,14211.954086,-75383.797003
558.768032,1332.370696,19393.395680,-75690.235202
558.770623,8882.471304,-4589.276840,-74311.263306
558.773215,11251.130318,9178.553681,-74770.920605
558.775807,-2368.659014,2664.741391,-77069.207099
558.778398,1628.453072,6809.894666,-77069.207099
558.780990,-740.205942,9474.636058,-75843.454302
558.783581,1036.288319,13915.871710,-76762.768900
558.786173,8882.471304,10510.924376,-75537.016103
558.788765,3701.029710,4441.235652,-75690.235202
558.791356,-296.082377,9622.677246,-75383.797003
558.793948,4737.318029,-592.164754,-75383.797003
558.796540,-4885.359217,-2516.700203,-76609.549800
558.799131,8734.430116,12287.418637,-73698.386908
558.801723,4885.359217,6513.812290,-74311.263306
558.804314,9474.636058,7994.224174,-73238.729609
558.806906,-11251.130318,15988.448347,-74770.920605
558.809498,3256.906145,-3997.112087,-72932.291410
558.812089,-4145.153275,7994.224174,-75077.358804
558.814681,22650.301825,18209.066173,-69714.690318
558.817272,12583.501014,23094.425390,-72779.072310
558.819864,-592.164754,-5329.482782,-74770.920605
558.822456,-8290.306550,1184.329507,-73698.386908
558.825047,-1480.411884,19245.354492,-73545.167808
558.827639,9178.553681,8438.347739,-75690.235202
558.830231,9474.636058,5033.400406,-77528.864398
558.832822,-1184.329507,-592.164754,-76609.549800
558.835414,-4589.276840,-2220.617826,-75077.358804
558.838005,6217.729913,13471.748144,-73238.729609
558.840597,3849.070898,8734.430116,-74311.263306
558.843189,-3404.947333,4145.153275,-77069.207099
558.845780,-5033.400406,-5921.647536,-78907.836294
558.848372,-2368.659014,3552.988522,-75537.016103
558.850964,14804.118840,16432.571912,-73238.729609
558.853553,5329.482782,-3552.988522,-75537.016103
558.856142,-5181.441594,-18653.189738,-76149.892501
558.858732,-1628.453072,6217.729913,-76456.330700
558.861321,-2664.741391,-1628.453072,-78754.617194
558.863911,7550.100608,-10955.047942,-76762.768900
558.866500,9030.512492,888.247130,-75843.454302
558.869090,-1184.329507,9178.553681,-76456.330700
558.871679,-15396.283594,-1924.535449,-77222.426198
558.874269,5773.606348,-1776.494261,-77069.207099
558.876858,6365.771101,1480.411884,-76762.768900
558.879448,2812.782580,-1924.535449,-77528.864398
558.882037,-3552.988522,740.205942,-75996.673402
558.884626,-740.205942,8438.347739,-74158.044206
558.887216,2220.617826,3701.029710,-72166.195912
558.889805,-5625.565159,-21465.972318,-74158.044206
558.892395,1184.329507,-10807.006753,-75077.358804
558.894984,14804.118840,-31236.690752,-73698.386908
558.897574,10510.924376,-23094.425390,-73238.729609
558.900163,-1036.288319,1184.329507,-72932.291410
558.902753,-11399.171507,-9030.512492,-73238.729609
558.905342,3108.864956,-36566.173535,-72166.195912
558.907932,23982.672521,-30348.443622,-73238.729609
558.910521,29460.196492,-7105.977043,-72779.072310
558.913110,592.164754,5329.482782,-77528.864398
558.915700,-12879.583391,-13027.624579,-76762.768900
558.918289,6661.853478,1036.288319,-70787.224015
558.920879,10362.883188,6513.812290,-73085.510509
558.923468,-2516.700203,-8586.388927,-77528.864398
558.926058,2368.659014,-5477.523971,-79061.055394
558.928647,-1480.411884,-4293.194464,-77222.426198
558.931237,-18505.148550,5625.565159,-76456.330700
558.933826,-8142.265362,14211.954086,-75230.577904
558.936416,5477.523971,2072.576638,-75077.358804
558.939005,9326.594869,-10362.883188,-76915.987999
558.941594,-1184.329507,-19541.436869,-76609.549800
558.944184,1480.411884,11695.253884,-75690.235202
558.946773,-9030.512492,14804.118840,-76456.330700
558.949363,-7550.100608,3997.112087,-75077.358804
558.951952,13323.706956,3404.947333,-74158.044206
558.954542,888.247130,-11991.336260,-76456.330700
558.957127,-9622.677246,-4737.318029,-77988.521696
558.959713,-8586.388927,12583.501014,-77682.083497
558.962299,-888.247130,12287.418637,-76149.892501
558.964885,1628.453072,2812.782580,-74158.044206
558.967470,5329.482782,6661.853478,-73238.729609
558.970056,4737.318029,-296.082377,-75690.235202
558.972642,-4885.359217,2368.659014,-78448.178995
558.975228,-444.123565,8290.306550,-76762.768900
558.977814,9474.636058,22650.301825,-73851.606007
558.980399,7550.100608,33309.267390,-73851.606007
558.982985,10658.965565,2368.659014,-73851.606007
558.985571,29312.155303,-5921.647536,-70634.004916
558.988157,19393.395680,13323.706956,-74004.825107
558.990742,-1480.411884,6217.729913,-77682.083497
558.993328,21169.889941,-8142.265362,-71859.757712
558.995914,28571.949361,6069.688724,-67876.061123
558.998500,3849.070898,13027.624579,-74158.044206
559.001085,6217.729913,4885.359217,-75843.454302
559.003671,-9770.718434,-11695.253884,-79061.055394
559.006257,3997.112087,0.000000,-75383.797003
559.008843,10362.883188,17172.777854,-72472.634111
559.011428,2516.700203,7254.018232,-73851.606007
559.014014,-5477.523971,-9770.718434,-73698.386908
559.016600,10066.800811,-2220.617826,-73698.386908
559.019186,592.164754,6661.853478,-76762.768900
559.021771,-12583.501014,-3701.029710,-78754.617194
559.024357,8586.388927,7698.141797,-73851.606007
559.026943,9178.553681,8142.265362,-71400.100414
559.029529,1036.288319,-15100.201217,-73238.729609
559.032115,-7402.059420,-7698.141797,-76149.892501
559.034700,4441.235652,-2812.782580,-77835.302597
559.037286,-4441.235652,-3997.112087,-77528.864398
559.039872,1628.453072,296.082377,-73851.606007
559.042458,17912.983796,-1480.411884,-71093.662214
559.045043,6365.771101,-11103.089130,-73851.606007
559.047629,-12287.418637,-11399.171507,-77528.864398
559.050215,3108.864956,-6661.853478,-78601.398095
559.052801,7402.059420,740.205942,-76915.987999
559.055386,3701.029710,-2368.659014,-75077.358804
559.057972,-6069.688724,888.247130,-74617.701505
559.060554,-1628.453072,-9474.636058,-75843.454302
559.063138,-148.041188,-18061.024985,-76303.111601
559.065721,15544.324782,-18357.107362,-75996.673402
559.068304,24722.878463,-24722.878463,-74004.825107
559.070887,16136.489536,-2960.823768,-73698.386908
559.073471,-5329.482782,-17320.819043,-75537.016103
559.076054,-14656.077652,-21910.095883,-76149.892501
559.078637,-9622.677246,1924.535449,-76762.768900
559.081221,-10510.924376,-1184.329507,-78754.617194
559.083804,-4293.194464,-7698.141797,-76303.111601
559.086387,-592.164754,148.041188,-74158.044206
559.088970,148.041188,-2072.576638,-73085.510509
559.091554,-1480.411884,-148.041188,-73545.167808
559.094137,-2960.823768,-15100.201217,-75077.358804
559.096720,2960.823768,-6365.771101,-76762.768900
559.099304,14656.077652,1628.453072,-73085.510509
559.101887,20429.683999,-3701.029710,-72625.853210
559.104470,444.123565,-9770.718434,-73851.606007
559.107053,-5181.441594,3404.947333,-74311.263306
559.109637,13175.665768,3997.112087,-74158.044206
559.112220,4885.359217,-3404.947333,-74617.701505
559.114803,17024.736666,1480.411884,-74617.701505
559.117386,4145.153275,9622.677246,-75690.235202
559.119970,-11103.089130,-4885.359217,-75843.454302
559.122553,7105.977043,2220.617826,-72625.853210
559.125136,8734.430116,-2220.617826,-73391.948708
559.127720,15544.324782,148.041188,-75230.577904
559.130303,6069.688724,-3997.112087,-76609.549800
559.132886,3256.906145,7105.977043,-75230.577904
559.135469,-2368.659014,13915.871710,-75383.797003
559.138053,-4885.359217,-444.123565,-73851.606007
559.140636,6957.935855,-148.041188,-74770.920605
559.143219,-5625.565159,-11103.089130,-78907.836294
559.145802,1332.370696,21465.972318,-77528.864398
559.148386,6365.771101,26351.331535,-75077.358804
559.150969,10214.842000,-21910.095883,-71246.881314
559.153552,22354.219448,18653.189738,-69714.690318
559.156136,-12435.459826,5033.400406,-78754.617194
559.158719,-6217.729913,-4885.359217,-79827.150892
559.161302,1480.411884,2368.659014,-75230.577904
559.163882,592.164754,3108.864956,-74924.139704
559.166462,-6809.894666,8142.265362,-75690.235202
559.169041,-5921.647536,4737.318029,-75690.235202
559.171621,11843.295072,6661.853478,-74770.920605
559.174201,1480.411884,1776.494261,-77988.521696
559.176781,-5033.400406,4737.318029,-77988.521696
559.179360,1924.535449,7402.059420,-74924.139704
559.181940,4293.194464,6513.812290,-72166.195912
559.184520,12731.542202,-5477.523971,-73238.729609
559.187100,7550.100608,3997.112087,-75383.797003
559.189680,2812.782580,4589.276840,-77988.521696
559.192259,444.123565,-2812.782580,-77528.864398
559.194839,-5329.482782,9178.553681,-73238.729609
559.197419,4145.153275,740.205942,-73238.729609
559.199999,3256.906145,-14804.118840,-74004.825107
559.202578,12583.501014,-6217.729913,-75537.016103
559.205158,1184.329507,444.123565,-77069.207099
559.207738,-5921.647536,5477.523971,-76915.987999
559.210318,5921.647536,-3108.864956,-72932.291410
559.212897,11843.295072,-4441.235652,-71706.538613
559.215477,-7254.018232,-7994.224174,-75690.235202
559.218057,888.247130,-3552.988522,-76915.987999
559.220637,2664.741391,-1184.329507,-76762.768900
559.223216,148.041188,1184.329507,-74617.701505
559.225796,3108.864956,-17172.777854,-72625.853210
559.228376,4441.235652,-1628.453072,-72166.195912
559.230956,13175.665768,-22650.301825,-74617.701505
559.233535,16876.695478,-44856.480085,-72012.976812
559.236115,11103.089130,-8142.265362,-76915.987999
559.238695,-11251.130318,40711.326810,-79214.274493
559.241275,-17616.901420,10214.842000,-74311.263306
559.243854,32569.061448,-32421.020260,-67569.622924
559.246434,47965.345042,-12287.418637,-67876.061123
559.249014,3997.112087,8290.306550,-79061.055394
559.251594,-22206.178260,-4737.318029,-81206.122788
559.254173,-14804.118840,-20281.642811,-78141.740796
559.256753,11251.130318,1776.494261,-70327.566716
559.259333,13915.871710,1628.453072,-73238.729609
559.261913,-7698.141797,-4737.318029,-78141.740796
559.264493,-3701.029710,-740.205942,-77682.083497
559.267070,31384.731941,-3552.988522,-71859.757712
559.269648,11991.336260,-3256.906145,-75230.577904
559.272226,-17172.777854,-4293.194464,-75537.016103
559.274804,6069.688724,1036.288319,-73851.606007
559.277382,11991.336260,1776.494261,-73545.167808
559.279960,11991.336260,1924.535449,-74464.482406
559.282538,-1776.494261,12879.583391,-76762.768900
559.285115,-3849.070898,296.082377,-77222.426198
559.287693,-1480.411884,2960.823768,-74004.825107
559.290271,4293.194464,11991.336260,-72166.195912
559.292849,11991.336260,1184.329507,-73698.386908
559.295427,8142.265362,-4589.276840,-75690.235202
559.298005,5921.647536,3997.112087,-75537.016103
559.300582,-2960.823768,12287.418637,-75843.454302
559.303160,1480.411884,11103.089130,-73238.729609
559.305738,10955.047942,3404.947333,-73698.386908
559.308316,-4737.318029,-13915.871710,-77682.083497
559.310894,7254.018232,18653.189738,-75383.797003
559.313472,17172.777854,3552.988522,-72932.291410
559.316050,13619.789333,15988.448347,-72012.976812
559.318627,38194.626607,1776.494261,-66190.651027
559.321205,26055.249158,-18801.230927,-70940.443115
559.323783,22946.384202,-13915.871710,-72625.853210
559.326361,9030.512492,-21762.054695,-75537.016103
559.328939,-2516.700203,3701.029710,-75996.673402
559.331517,-3404.947333,10807.006753,-74311.263306
559.334095,11991.336260,14211.954086,-72932.291410
559.336672,-4293.194464,8142.265362,-77222.426198
559.339250,-10807.006753,-2960.823768,-78294.959896
559.341828,148.041188,2664.741391,-76303.111601
559.344406,2812.782580,11695.253884,-73391.948708
559.346984,7994.224174,-2812.782580,-73545.167808
559.349562,10066.800811,2220.617826,-73698.386908
559.352140,1036.288319,1480.411884,-77682.083497
559.354717,-5329.482782,888.247130,-77375.645298
559.357295,-2960.823768,18505.148550,-74158.044206
559.359873,4293.194464,-4885.359217,-73085.510509
559.362451,5921.647536,-20429.683999,-73391.948708
559.365029,13027.624579,-2368.659014,-75077.358804
559.367607,-1924.535449,-4737.318029,-78754.617194
559.370182,-8586.388927,-3849.070898,-77069.207099
559.372756,14804.118840,-3108.864956,-72472.634111
559.375331,9326.594869,-5773.606348,-73238.729609
559.377906,-13323.706956,-5181.441594,-75690.235202
559.380481,-2368.659014,-8290.306550,-78141.740796
559.383056,-740.205942,-740.205942,-77528.864398
559.385631,3701.029710,2220.617826,-75230.577904
559.388206,3701.029710,-13619.789333,-74770.920605
559.390781,-740.205942,-22650.301825,-74770.920605
559.393356,0.000000,-30200.402434,-75383.797003
559.395930,-2072.576638,740.205942,-76456.330700
559.398505,-10658.965565,17616.901420,-78754.617194
559.401080,-10066.800811,-6217.729913,-76303.111601
559.403655,12435.459826,-31976.896694,-70480.785816
559.406230,27683.702231,-28423.908173,-71859.757712
559.408805,4145.153275,6957.935855,-75383.797003
559.411380,-5477.523971,10510.924376,-78294.959896
559.413955,-15100.201217,-13027.624579,-77988.521696
559.416529,7994.224174,-3997.112087,-72932.291410
559.419104,7698.141797,-6069.688724,-72625.853210
559.421679,-7994.224174,-6217.729913,-74770.920605
559.424254,7994.224174,-8734.430116,-73851.606007
559.426829,18801.230927,-13767.830521,-74617.701505
559.429404,-7105.977043,-3552.988522,-77069.207099
559.431979,-12879.583391,14508.036463,-77222.426198
559.434554,9030.512492,-7105.977043,-74464.482406
559.437129,6217.729913,-12879.583391,-73545.167808
559.439703,3849.070898,5773.606348,-75383.797003
559.442278,5477.523971,12731.542202,-77222.426198
559.444853,-13767.830521,-740.205942,-79367.493593
559.447428,2960.823768,1776.494261,-75843.454302
559.450003,9178.553681,148.041188,-72932.291410
559.452578,10510.924376,-9030.512492,-74158.044206
559.455153,-444.123565,1332.370696,-76456.330700
559.457728,-3256.906145,11547.212695,-78448.178995
559.460302,2072.576638,7994.224174,-75537.016103
559.462877,7254.018232,6513.812290,-73851.606007
559.465452,-5477.523971,-4145.153275,-76303.111601
559.468027,-1036.288319,-3256.906145,-77069.207099
559.470602,888.247130,-14952.160028,-76456.330700
559.473175,22798.343014,-15248.242405,-72472.634111
559.475749,13175.665768,-17024.736666,-72319.415011
559.478322,-13471.748144,4885.359217,-76609.549800
559.480895,-16728.654289,6069.688724,-79367.493593
559.483468,-12731.542202,12583.501014,-77375.645298
559.486042,-10807.006753,9326.594869,-77375.645298
559.488615,-8734.430116,8438.347739,-75537.016103
559.491188,2072.576638,4145.153275,-73238.729609
559.493761,-6661.853478,1924.535449,-76456.330700
559.496335,-7105.977043,-592.164754,-75230.577904
559.498908,9178.553681,11695.253884,-73851.606007
559.501481,5033.400406,7846.182985,-75230.577904
559.504054,5773.606348,1628.453072,-73851.606007
559.506628,-6957.935855,-1184.329507,-75383.797003
559.509201,-10066.800811,-444.123565,-76762.768900
559.511774,14952.160028,12435.459826,-74311.263306
559.514347,4589.276840,2072.576638,-76149.892501
559.516921,-4293.194464,-19245.354492,-76303.111601
559.519494,-1924.535449,-1480.411884,-75077.358804
559.522067,-3552.988522,5921.647536,-76149.892501
559.524640,-148.041188,-8142.265362,-76762.768900
559.527214,6513.812290,-6661.853478,-75690.235202
559.529787,3256.906145,8882.471304,-76609.549800
559.532360,-19245.354492,2220.617826,-77835.302597
559.534933,-14656.077652,-3701.029710,-76149.892501
559.537507,-592.164754,-3404.947333,-76456.330700
559.540080,6957.935855,-3552.988522,-76149.892501
559.542653,-444.123565,1184.329507,-75690.235202
559.545226,-1776.494261,888.247130,-76149.892501
559.547800,3849.070898,17616.901420,-74770.920605
559.550373,-444.123565,19837.519246,-74311.263306
559.552946,11547.212695,-19837.519246,-72779.072310
559.555519,34345.555709,-41155.450375,-71859.757712
559.558093,13915.871710,13471.748144,-76762.768900
559.560666,-24722.878463,46484.933158,-81359.341888
559.563239,-21169.889941,5773.606348,-76456.330700
559.565813,-17024.736666,-10510.924376,-76762.768900
559.568386,17912.983796,-15100.201217,-71246.881314
559.570959,11843.295072,6513.812290,-75077.358804
559.573532,-14211.954086,3108.864956,-78294.959896
559.576104,444.123565,-8438.347739,-76303.111601
559.578677,-1184.329507,-1332.370696,-74004.825107
559.581249,-7402.059420,11843.295072,-74158.044206
559.583821,16728.654289,2516.700203,-73545.167808
559.586393,10955.047942,-14656.077652,-75230.577904
559.588965,-8882.471304,-6513.812290,-75843.454302
559.591538,888.247130,13619.789333,-74924.139704
559.594110,4293.194464,6957.935855,-73698.386908
559.596682,3849.070898,9474.636058,-74004.825107
559.599254,17468.860231,9622.677246,-72012.976812
559.601826,11103.089130,-2220.617826,-75690.235202
559.604399,-7550.100608,2664.741391,-77682.083497
559.606971,-8438.347739,16136.489536,-74924.139704
559.609543,18357.107362,7254.018232,-71706.538613
559.612115,15248.242405,-1480.411884,-73698.386908
559.614687,-5033.400406,8438.347739,-75843.454302
559.617260,-2664.741391,7698.141797,-76303.111601
559.619832,10807.006753,-2072.576638,-73391.948708
559.622404,-1332.370696,-13767.830521,-75230.577904
559.624976,-740.205942,10807.006753,-74004.825107
559.627548,7402.059420,-8882.471304,-75996.673402
559.630120,23982.672521,148.041188,-72625.853210
559.632693,37454.420665,-8734.430116,-69561.471218
559.635265,8734.430116,-16284.530724,-73238.729609
559.637837,-26943.496289,1628.453072,-80133.589091
559.640409,-33161.226202,3404.947333,-83044.751983
559.642981,-13767.830521,-6513.812290,-77069.207099
559.645554,13471.748144,-2368.659014,-71859.757712
559.648126,6069.688724,18061.024985,-74617.701505
559.650698,-11695.253884,9178.553681,-77835.302597
559.653270,-1924.535449,888.247130,-76609.549800
559.655842,13471.748144,-148.041188,-73851.606007
559.658415,20281.642811,2516.700203,-72166.195912
559.660987,-740.205942,1036.288319,-74924.139704
559.663559,-12731.542202,-6365.771101,-77222.426198
559.666131,10658.965565,3997.112087,-74311.263306
559.668703,6069.688724,7994.224174,-74004.825107
559.671276,-3997.112087,-11991.336260,-75077.358804
559.673848,-5329.482782,-8142.265362,-75230.577904
559.676420,-1036.288319,-1776.494261,-75690.235202
559.678990,-7254.018232,-1776.494261,-75230.577904
559.681560,-1776.494261,-3849.070898,-75843.454302
559.684129,0.000000,8586.388927,-75690.235202
559.686699,-12435.459826,6513.812290,-76303.111601
559.689269,-1036.288319,-2072.576638,-74464.482406
559.691839,4441.235652,-3997.112087,-75690.235202
559.694409,2072.576638,-10955.047942,-76915.987999
559.696979,-4145.153275,-4293.194464,-76915.987999
559.699548,-740.205942,21465.972318,-74464.482406
559.702118,8142.265362,12139.377449,-75843.454302
559.704688,2664.741391,2812.782580,-74924.139704
559.707258,5773.606348,-3552.988522,-74617.701505
559.709828,10807.006753,-1036.288319,-75383.797003
559.712397,8290.306550,7994.224174,-75077.358804
559.714967,14952.160028,-13767.830521,-73085.510509
559.717537,14359.995275,-23094.425390,-71093.662214
559.720107,16580.613101,-9030.512492,-74464.482406
559.722677,5625.565159,592.164754,-75230.577904
559.725247,-5625.565159,8290.306550,-77222.426198
559.727816,4441.235652,-5033.400406,-77069.207099
559.730386,-3552.988522,-11251.130318,-75843.454302
559.732956,7105.977043,-1776.494261,-73238.729609
559.735526,27683.702231,-888.247130,-72625.853210
559.738096,-1184.329507,-12435.459826,-77835.302597
559.740666,-12139.377449,2516.700203,-77835.302597
559.743235,12879.583391,-888.247130,-74464.482406
559.745805,10658.965565,-10955.047942,-72932.291410
559.748375,8438.347739,4145.153275,-72932.291410
559.750945,-5625.565159,15544.324782,-75996.673402
559.753515,-6365.771101,1776.494261,-77375.645298
559.756085,296.082377,3849.070898,-75690.235202
559.758654,12287.418637,-4145.153275,-71859.757712
559.761224,15544.324782,-8142.265362,-71859.757712
559.763794,-3108.864956,3256.906145,-75843.454302
559.766364,-6809.894666,15396.283594,-76915.987999
559.768934,296.082377,7846.182985,-75537.016103
559.771504,9474.636058,888.247130,-72932.291410
559.774073,-1036.288319,10658.965565,-75537.016103
559.776643,-7550.100608,-21021.848753,-77528.864398
559.779213,0.000000,-30348.443622,-75077.358804
559.781782,-8586.388927,17172.777854,-67569.622924
559.784351,-3849.070898,32865.143825,-74617.701505
559.786919,-33013.185013,19393.395680,-80899.684589
559.789488,21614.013506,-592.164754,-71706.538613
559.792057,49001.633360,1036.288319,-66343.870127
559.794626,9474.636058,30792.567187,-74158.044206
559.797194,-24278.754898,17764.942608,-80899.684589
559.799763,-2072.576638,-19541.436869,-74770.920605
559.802332,15692.365970,1924.535449,-70327.566716
559.804901,6661.853478,15840.407159,-75230.577904
559.807469,-14804.118840,13175.665768,-79061.055394
559.810038,3404.947333,-10362.883188,-76609.549800
559.812607,19097.313304,10362.883188,-72932.291410
559.815176,9474.636058,10066.800811,-73698.386908
559.817744,-9770.718434,-3552.988522,-77835.302597
559.820313,-7994.224174,5625.565159,-76915.987999
559.822882,11251.130318,-6365.771101,-74924.139704
559.825451,8290.306550,-15692.365970,-74770.920605
559.828019,1776.494261,-3849.070898,-75537.016103
559.830588,-9178.553681,-2072.576638,-76762.768900
559.833157,-592.164754,-1628.453072,-74770.920605
559.835726,22354.219448,-6957.935855,-72472.634111
559.838294,7105.977043,-15248.242405,-74924.139704
559.840863,-6957.935855,-3552.988522,-77069.207099
559.843432,8586.388927,-888.247130,-75537.016103
559.846001,10658.965565,-9326.594869,-74004.825107
559.848569,8734.430116,-11547.212695,-74158.044206
559.851138,-5181.441594,-14359.995275,-75077.358804
559.853707,-2072.576638,-20873.807564,-75690.235202
559.856276,-148.041188,-888.247130,-75843.454302
559.858845,-7698.141797,12731.542202,-77528.864398
559.861413,-4737.318029,13471.748144,-76456.330700
559.863982,18505.148550,-9918.759623,-71706.538613
559.866551,23242.466579,-19541.436869,-69408.252119
559.869120,9178.553681,-592.164754,-74770.920605
559.871688,-4885.359217,1332.370696,-77528.864398
559.874257,-4441.235652,-4293.194464,-76149.892501
559.876826,6513.812290,-9326.594869,-75230.577904
559.879395,592.164754,-3404.947333,-73391.948708
559.881963,-7254.018232,6513.812290,-74158.044206
559.884530,17912.983796,4737.318029,-72472.634111
559.887096,10510.924376,-8290.306550,-75230.577904
559.889663,-9326.594869,1924.535449,-76456.330700
559.892229,4441.235652,1036.288319,-76303.111601
559.894795,5625.565159,-3108.864956,-73238.729609
559.897362,14804.118840,888.247130,-72166.195912
559.899928,-444.123565,13767.830521,-75383.797003
559.902495,-13767.830521,7254.018232,-77835.302597
559.905061,8438.347739,5181.441594,-75230.577904
559.907627,7550.100608,-1184.329507,-72932.291410
559.910194,21762.054695,-10066.800811,-72319.415011
559.912760,3849.070898,1036.288319,-75383.797003
559.915327,-8438.347739,11399.171507,-77988.521696
559.917893,-2072.576638,9326.594869,-76609.549800
559.920460,6365.771101,5329.482782,-74924.139704
559.923026,148.041188,-11103.089130,-75690.235202
559.925592,740.205942,9770.718434,-74464.482406
559.928159,17024.736666,-25315.043216,-74464.482406
559.930725,-296.082377,-444.123565,-75843.454302
559.933292,-29608.237680,-6365.771101,-80286.808190
559.935858,-13027.624579,5773.606348,-77835.302597
559.938424,-22354.219448,10510.924376,-77375.645298
559.940991,-5329.482782,20133.601622,-77375.645298
559.943557,3849.070898,16876.695478,-75690.235202
559.946124,5625.565159,2072.576638,-75996.673402
559.948690,-4441.235652,0.000000,-74617.701505
559.951257,-3997.112087,4293.194464,-75383.797003
559.953823,-888.247130,3108.864956,-75537.016103
559.956389,12879.583391,2220.617826,-75690.235202
559.958956,444.123565,-4885.359217,-76456.330700
559.961522,-8882.471304,-4737.318029,-76303.111601
559.964089,12731.542202,7846.182985,-71859.757712
559.966655,6365.771101,-2516.700203,-73238.729609
559.969221,-4293.194464,-8734.430116,-74770.920605
559.971788,296.082377,-15840.407159,-75843.454302
559.974354,0.000000,-296.082377,-77375.645298
559.976921,-10214.842000,-4293.194464,-76303.111601
559.979487,-1924.535449,-13471.748144,-73391.948708
559.982054,6069.688724,8734.430116,-74617.701505
559.984620,-15840.407159,6809.894666,-78294.959896
559.987185,-10510.924376,-1036.288319,-77835.302597
559.989750,-4145.153275,-13471.748144,-77069.207099
559.992315,-5921.647536,2220.617826,-76609.549800
559.994880,-3849.070898,15396.283594,-74158.044206
559.997445,12287.418637,6217.729913,-74770.920605
560.000010,4293.194464,10955.047942,-75383.797003
560.002575,-18209.066173,15100.201217,-79214.274493
560.005140,-22650.301825,15248.242405,-78294.959896
560.007705,-6513.812290,25759.166782,-76915.987999
560.010270,4737.318029,13767.830521,-76149.892501
560.012835,10214.842000,1776.494261,-72779.072310
560.015400,1184.329507,-3997.112087,-74311.263306
560.017965,-296.082377,1184.329507,-74617.701505
560.020530,1628.453072,-5921.647536,-75690.235202
560.023095,15396.283594,-7254.018232,-73698.386908
560.025660,3108.864956,-1480.411884,-76303.111601
560.028225,-19393.395680,-1480.411884,-77375.645298
560.030790,9474.636058,6069.688724,-72779.072310
560.033355,5625.565159,2664.741391,-74770.920605
560.035920,-1776.494261,-7994.224174,-75690.235202
560.038485,-2960.823768,3701.029710,-76149.892501
560.041050,-11399.171507,14063.912898,-76762.768900
560.043615,3701.029710,6217.729913,-74004.825107
560.046180,11547.212695,10807.006753,-72625.853210
560.048745,2516.700203,-1776.494261,-75996.673402
560.051310,-5033.400406,5181.441594,-77069.207099
560.053875,3997.112087,7254.018232,-74770.920605
560.056440,21762.054695,-3997.112087,-72932.291410
560.059005,7402.059420,1776.494261,-74004.825107
560.061570,-6365.771101,14359.995275,-75690.235202
560.064135,-7402.059420,8142.265362,-77069.207099
560.066700,-3701.029710,1184.329507,-76303.111601
560.069265,3552.988522,5329.482782,-75690.235202
560.071830,-3849.070898,27683.702231,-76303.111601
560.074395,-14656.077652,15100.201217,-78294.959896
560.076960,5625.565159,-296.082377,-74311.263306
560.079525,15692.365970,21465.972318,-70021.128517
560.082090,2072.576638,14804.118840,-75537.016103
560.084655,-1332.370696,10066.800811,-76303.111601
560.087220,15100.201217,-296.082377,-74924.139704
560.089784,15248.242405,13915.871710,-73238.729609
560.092348,-2072.576638,8142.265362,-76149.892501
560.094912,-4441.235652,1184.329507,-75383.797003
560.097477,-1480.411884,-7994.224174,-74770.920605
560.100041,19245.354492,7846.182985,-73851.606007
560.102605,3849.070898,5625.565159,-77375.645298
560.105170,-15100.201217,-7402.059420,-77375.645298
560.107734,10214.842000,7994.224174,-73238.729609
560.110298,12583.501014,592.164754,-72625.853210
560.112863,-4441.235652,-12879.583391,-75077.358804
560.115427,-13471.748144,-592.164754,-77528.864398
560.117991,-1184.329507,-4589.276840,-77835.302597
560.120556,10066.800811,-7550.100608,-74311.263306
560.123120,6217.729913,4293.194464,-73391.948708
560.125684,-10066.800811,11103.089130,-73545.167808
560.128249,-19689.478057,4145.153275,-78907.836294
560.130813,-9474.636058,-9178.553681,-78601.398095
560.133378,444.123565,-12731.542202,-76915.987999
560.135942,3997.112087,1184.329507,-74617.701505
560.138506,740.205942,17764.942608,-75077.358804
560.141071,-3404.947333,-16432.571912,-76915.987999
560.143635,-10658.965565,740.205942,-75843.454302
560.146199,-21762.054695,32421.020260,-80899.684589
560.148764,-13027.624579,7846.182985,-77988.521696
560.151328,2072.576638,7402.059420,-75996.673402
560.153892,-11547.212695,17172.777854,-78601.398095
560.156457,-16876.695478,7698.141797,-78141.740796
560.159021,-12731.542202,-148.041188,-75996.673402
560.161585,7550.100608,-2220.617826,-74464.482406
560.164150,7846.182985,-5033.400406,-76149.892501
560.166714,-19245.354492,-3849.070898,-79061.055394
560.169278,5033.400406,-4293.194464,-75077.358804
560.171843,25018.960840,-8438.347739,-70327.566716
560.174407,-3701.029710,-9770.718434,-75690.235202
560.176971,-16876.695478,4145.153275,-78448.178995
560.179536,1924.535449,-11695.253884,-77528.864398
560.182100,14656.077652,-17320.819043,-73851.606007
560.184664,2516.700203,17320.819043,-73851.606007
560.187229,-18061.024985,19097.313304,-78907.836294
560.189793,-17468.860231,7254.018232,-78141.740796
560.192356,7846.182985,1332.370696,-75843.454302
560.194919,5033.400406,-6513.812290,-75537.016103
560.197482,-20133.601622,5625.565159,-78754.617194
560.200045,-14508.036463,16580.613101,-79061.055394
560.202608,4145.153275,11843.295072,-74004.825107
560.205171,9178.553681,6217.729913,-72625.853210
560.207734,592.164754,7994.224174,-74617.701505
560.210297,-11251.130318,-13027.624579,-78754.617194
560.212860,4293.194464,-148.041188,-74311.263306
560.215423,18357.107362,-8586.388927,-72012.976812
560.217986,14063.912898,-3108.864956,-71093.662214
560.220549,6513.812290,19837.519246,-72779.072310
560.223112,-7105.977043,20577.725188,-75690.235202
560.225675,10362.883188,-5921.647536,-74617.701505
560.228238,18357.107362,888.247130,-73698.386908
560.230801,2220.617826,18949.272115,-75843.454302
560.233364,-2072.576638,8586.388927,-75843.454302
560.235927,5033.400406,-9622.677246,-74004.825107
560.238490,4737.318029,-7846.182985,-71859.757712
560.241053,2960.823768,9770.718434,-75690.235202
560.243615,-10066.800811,592.164754,-79061.055394
560.246178,-7550.100608,740.205942,-77069.207099
560.248741,11843.295072,14211.954086,-73085.510509
560.251304,9030.512492,5033.400406,-72779.072310
560.253867,-2220.617826,-13323.706956,-74617.701505
560.256430,-4737.318029,-11399.171507,-77222.426198
560.258993,1036.288319,-3256.906145,-77988.521696
560.261556,1480.411884,-5181.441594,-76762.768900
560.264119,444.123565,1628.453072,-74770.920605
560.266682,-2220.617826,9474.636058,-75996.673402
560.269245,-8882.471304,444.123565,-76303.111601
560.271808,-2072.576638,-12435.459826,-75996.673402
560.274371,3404.947333,-7402.059420,-77222.426198
560.276933,6957.935855,2220.617826,-75996.673402
560.279496,3701.029710,5625.565159,-74770.920605
560.282059,444.123565,-13619.789333,-73698.386908
560.284621,6365.771101,-41747.615129,-72472.634111
560.287184,-444.123565,-11991.336260,-75077.358804
560.289747,-9622.677246,7994.224174,-78448.178995
560.292309,3404.947333,-36862.255912,-75537.016103
560.294872,13175.665768,-27831.743419,-72012.976812
560.297434,3404.947333,1036.288319,-73698.386908
560.299997,-9326.594869,12879.583391,-76915.987999
560.302560,-4885.359217,-16284.530724,-75077.358804
560.305122,19689.478057,-11547.212695,-72932.291410
560.307685,4589.276840,12287.418637,-75537.016103
560.310248,-27239.578666,3404.947333,-78294.959896
560.312810,3701.029710,-3849.070898,-78141.740796
560.315373,5625.565159,-5329.482782,-73391.948708
560.317935,11251.130318,-10362.883188,-71859.757712
560.320498,-1036.288319,10807.006753,-75230.577904
560.323061,-19837.519246,12879.583391,-79061.055394
560.325623,1480.411884,5181.441594,-75537.016103
560.328186,18061.024985,13471.748144,-71859.757712
560.330749,1924.535449,3552.988522,-75230.577904
560.333311,-8142.265362,3108.864956,-77069.207099
560.335874,10214.842000,-5477.523971,-73545.167808
560.338436,20429.683999,-7698.141797,-72932.291410
560.340999,-2664.741391,4737.318029,-77222.426198
560.343562,-2516.700203,10658.965565,-76456.330700
560.346124,-6217.729913,4737.318029,-76609.549800
560.348687,11843.295072,-21021.848753,-74004.825107
560.351250,7698.141797,-10066.800811,-73851.606007
560.353812,-2368.659014,-5921.647536,-77069.207099
560.356375,-4293.194464,4589.276840,-76915.987999
560.358937,-1776.494261,3849.070898,-76609.549800
560.361500,4885.359217,-16876.695478,-72166.195912
560.364063,11843.295072,-6809.894666,-71706.538613
560.366625,4885.359217,15396.283594,-75077.358804
560.369188,-4441.235652,17024.736666,-79827.150892
560.371751,-1332.370696,1628.453072,-76456.330700
560.374313,9770.718434,5477.523971,-73238.729609
560.376874,3552.988522,3997.112087,-71093.662214
560.379435,13471.748144,-444.123565,-72319.415011
560.381996,3701.029710,-1480.411884,-76456.330700
560.384557,-9918.759623,-5181.441594,-78754.617194
560.387118,9030.512492,11695.253884,-74158.044206
560.389679,1924.535449,4737.318029,-74158.044206
560.392240,-6217.729913,-14804.118840,-74311.263306
560.394801,-5329.482782,-3108.864956,-75690.235202
560.397362,-6069.688724,-148.041188,-78754.617194
560.399923,-2516.700203,-2812.782580,-76915.987999
560.402484,4293.194464,4293.194464,-74924.139704
560.405045,148.041188,11695.253884,-74004.825107
560.407606,-14063.912898,3404.947333,-76609.549800
560.410167,-11843.295072,-12139.377449,-77528.864398
560.412728,-5625.565159,-13323.706956,-77988.521696
560.415289,7105.977043,4293.194464,-75230.577904
560.417850,2220.617826,9178.553681,-74617.701505
560.420411,6809.894666,3849.070898,-73085.510509
560.422972,14804.118840,-31976.896694,-72166.195912
560.425533,20429.683999,-32272.979071,-72932.291410
560.428094,14211.954086,18209.066173,-75537.016103
560.430655,14656.077652,3849.070898,-75996.673402
560.433216,23538.548956,-35529.885216,-74311.263306
560.435777,14211.954086,-13619.789333,-72625.853210
560.438338,1184.329507,-8438.347739,-72625.853210
560.440899,3997.112087,2220.617826,-75383.797003
560.443460,3256.906145,-9030.512492,-78294.959896
560.446021,-1184.329507,-17172.777854,-75690.235202
560.448582,22798.343014,-2220.617826,-71859.757712
560.451143,7698.141797,7550.100608,-75077.358804
560.453704,-8142.265362,-1628.453072,-76762.768900
560.456265,3701.029710,-19689.478057,-75230.577904
560.458826,12435.459826,-13619.789333,-73698.386908
560.461387,3404.947333,19985.560434,-75077.358804
560.463948,-11991.336260,13619.789333,-77835.302597
560.466509,-2812.782580,9030.512492,-74617.701505
560.469070,7402.059420,2516.700203,-73851.606007
560.471631,5625.565159,-3997.112087,-75383.797003
560.474192,-12139.377449,0.000000,-76762.768900
560.476753,-11843.295072,10510.924376,-77682.083497
560.479313,1184.329507,17172.777854,-74924.139704
560.481873,2960.823768,10362.883188,-74464.482406
560.484433,-2516.700203,10658.965565,-73085.510509
560.486993,-4145.153275,-16432.571912,-75537.016103
560.489553,-2812.782580,17172.777854,-75537.016103
560.492113,-18505.148550,18357.107362,-80440.027290
560.494673,-11103.089130,-740.205942,-77988.521696
560.497233,3404.947333,-3701.029710,-74464.482406
560.499793,4885.359217,4441.235652,-71859.757712
560.502352,-1628.453072,20429.683999,-75230.577904
560.504912,-7550.100608,10510.924376,-79214.274493
560.507472,-888.247130,-2664.741391,-76915.987999
560.510032,10955.047942,4589.276840,-74770.920605
560.512592,1924.535449,3404.947333,-73545.167808
560.515152,5329.482782,-1332.370696,-73851.606007
560.517712,2516.700203,-4589.276840,-76149.892501
560.520272,-8882.471304,296.082377,-77682.083497
560.522832,9030.512492,13915.871710,-75537.016103
560.525392,14063.912898,-3256.906145,-74004.825107
560.527952,-2664.741391,-17468.860231,-74617.701505
560.530512,1332.370696,-18209.066173,-75077.358804
560.533072,-6365.771101,2812.782580,-79367.493593
560.535632,-12139.377449,296.082377,-79520.712692
560.538192,2664.741391,-3108.864956,-74617.701505
560.540752,7402.059420,8586.388927,-73085.510509
560.543312,-15544.324782,7105.977043,-76609.549800
560.545872,-17172.777854,-16728.654289,-77222.426198
560.548432,148.041188,-7550.100608,-75996.673402
560.550992,10658.965565,6661.853478,-76609.549800
560.553552,-1480.411884,14211.954086,-76149.892501
560.556112,-2812.782580,17468.860231,-76303.111601
560.558672,-2072.576638,18061.024985,-74464.482406
560.561232,-15692.365970,6957.935855,-77222.426198
560.563792,-6661.853478,11547.212695,-76762.768900
560.566352,-12287.418637,17320.819043,-79673.931792
560.568912,-7402.059420,8290.306550,-76303.111601
560.571472,444.123565,-888.247130,-73545.167808
560.574032,5329.482782,-12879.583391,-74617.701505
560.576592,-7846.182985,-8734.430116,-75383.797003
560.579152,14063.912898,2072.576638,-74464.482406
560.581712,-740.205942,3997.112087,-76609.549800
560.584271,-3701.029710,-1184.329507,-77222.426198
560.586830,4441.235652,-2516.700203,-74311.263306
560.589390,2368.659014,-5625.565159,-73391.948708
560.591949,2516.700203,11251.130318,-74464.482406
560.594509,-12879.583391,23538.548956,-77069.207099
560.597068,-8734.430116,10510.924376,-77222.426198
560.599628,9474.636058,13619.789333,-74004.825107
560.602187,11695.253884,-3256.906145,-74158.044206
560.604747,-2072.576638,-1480.411884,-75690.235202
560.607306,3849.070898,4589.276840,-74464.482406
560.609865,22946.384202,-4145.153275,-72932.291410
560.612425,8142.265362,3849.070898,-75077.358804
560.614984,-6069.688724,9326.594869,-76609.549800
560.617544,-592.164754,-1332.370696,-75843.454302
560.620103,13767.830521,8142.265362,-72319.415011
560.622663,592.164754,11843.295072,-75537.016103
560.625222,-19245.354492,40563.285622,-81206.122788
560.627781,-11251.130318,-14211.954086,-78448.178995
560.630341,30052.361245,11547.212695,-70480.785816
560.632900,-11547.212695,23094.425390,-75077.358804
560.635460,-21614.013506,8586.388927,-78754.617194
560.638019,7402.059420,-16728.654289,-75690.235202
560.640579,25167.002028,5625.565159,-72166.195912
560.643138,-296.082377,17320.819043,-77682.083497
560.645697,-13619.789333,148.041188,-76609.549800
560.648257,12287.418637,-10807.006753,-72625.853210
560.650816,13619.789333,444.123565,-72166.195912
560.653376,-14656.077652,7550.100608,-77069.207099
560.655935,296.082377,6069.688724,-77528.864398
560.658495,3552.988522,3701.029710,-74924.139704
560.661054,13175.665768,-11251.130318,-71553.319513
560.663613,-2368.659014,-5181.441594,-73391.948708
560.666173,-8438.347739,-1776.494261,-77528.864398
560.668732,-3552.988522,-5773.606348,-77375.645298
560.671292,10066.800811,2368.659014,-74004.825107
560.673851,-1036.288319,14359.995275,-76456.330700
560.676411,-18209.066173,7698.141797,-75843.454302
560.678970,-888.247130,-11991.336260,-73391.948708
560.681530,11843.295072,3552.988522,-73545.167808
560.684088,10955.047942,13027.624579,-76609.549800
560.686646,-4145.153275,-3849.070898,-76149.892501
560.689205,148.041188,-33753.390955,-74924.139704
560.691763,2664.741391,-19245.354492,-71859.757712
560.694321,-3849.070898,4737.318029,-74617.701505
560.696880,-9326.594869,18801.230927,-78907.836294
560.699438,-12731.542202,23686.590144,-78907.836294
560.701996,-1924.535449,-3108.864956,-77835.302597
560.704555,-5921.647536,-6661.853478,-74158.044206
560.707113,1924.535449,-2664.741391,-73851.606007
560.709671,-3849.070898,-1332.370696,-76915.987999
560.712230,-2072.576638,-20577.725188,-76149.892501
560.714788,19837.519246,-8734.430116,-73698.386908
560.717346,20873.807564,-3256.906145,-72472.634111
560.719905,2368.659014,9622.677246,-74617.701505
560.722463,148.041188,-10510.924376,-77222.426198
560.725021,2664.741391,-16136.489536,-73698.386908
560.727580,16284.530724,10362.883188,-73545.167808
560.730138,-2220.617826,22354.219448,-77069.207099
560.732696,-12879.583391,10362.883188,-78141.740796
560.735255,9918.759623,-2072.576638,-73698.386908
560.737813,1776.494261,-2812.782580,-75996.673402
560.740371,-19985.560434,11547.212695,-76762.768900
560.742930,-3108.864956,15100.201217,-76609.549800
560.745488,17764.942608,11399.171507,-72932.291410
560.748046,12879.583391,4589.276840,-73851.606007
560.750605,1776.494261,15988.448347,-73545.167808
560.753163,-9030.512492,16728.654289,-77375.645298
560.755721,-6217.729913,27683.702231,-77835.302597
560.758280,11547.212695,10510.924376,-76149.892501
560.760838,33309.267390,-25018.960840,-69867.909418
560.763396,31236.690752,-12139.377449,-68335.718422
560.765955,4441.235652,10658.965565,-74464.482406
560.768513,-9030.512492,-1036.288319,-77528.864398
560.771072,5625.565159,-14656.077652,-75843.454302
560.773630,17320.819043,4885.359217,-73391.948708
560.776188,5773.606348,15396.283594,-75230.577904
560.778747,14359.995275,7254.018232,-72779.072310
560.781305,1036.288319,-6069.688724,-75537.016103
560.783863,-7550.100608,-7550.100608,-76456.330700
560.786421,13915.871710,12731.542202,-74617.701505
560.788979,9030.512492,10362.883188,-75690.235202
560.791537,-2960.823768,-19245.354492,-75230.577904
560.794094,-7402.059420,-3108.864956,-74464.482406
560.796652,-7550.100608,0.000000,-75996.673402
560.799210,-2960.823768,-1628.453072,-75077.358804
560.801768,11103.089130,-2072.576638,-74311.263306
560.804325,6069.688724,9030.512492,-74770.920605
560.806883,-148.041188,-3997.112087,-74464.482406
560.809441,-9030.512492,-13323.706956,-74924.139704
560.811999,5773.606348,-8438.347739,-73851.606007
560.814556,7105.977043,-1480.411884,-76762.768900
560.817114,2960.823768,13175.665768,-75996.673402
560.819672,11843.295072,-17024.736666,-74311.263306
560.822230,16728.654289,-21910.095883,-71859.757712
560.824787,8290.306550,1332.370696,-74158.044206
560.827345,-740.205942,24870.919651,-77988.521696
560.829903,-2072.576638,14211.954086,-77988.521696
560.832461,3108.864956,-10362.883188,-77682.083497
560.835018,-2960.823768,-16580.613101,-75690.235202
560.837576,-10510.924376,-3997.112087,-73851.606007
560.840134,12583.501014,7994.224174,-75383.797003
560.842692,-5329.482782,11399.171507,-76915.987999
560.845249,-4441.235652,-5773.606348,-78448.178995
560.847807,9474.636058,-7105.977043,-75230.577904
560.850365,3552.988522,-1480.411884,-74464.482406
560.852923,2072.576638,5773.606348,-75383.797003
560.855480,-11547.212695,1776.494261,-75996.673402
560.858038,14508.036463,9918.759623,-72779.072310
560.860596,13323.706956,12139.377449,-74004.825107
560.863154,888.247130,-6217.729913,-75690.235202
560.865711,4145.153275,2960.823768,-73851.606007
560.868269,7550.100608,-1776.494261,-74770.920605
560.870827,11547.212695,-3997.112087,-74158.044206
560.873385,-12879.583391,4441.235652,-77375.645298
560.875942,-9030.512492,13323.706956,-75843.454302
560.878500,5181.441594,6957.935855,-74464.482406
560.881058,9474.636058,8882.471304,-72166.195912
560.883616,1332.370696,-9474.636058,-74617.701505
560.886174,17616.901420,-18209.066173,-72012.976812
560.888730,25018.960840,21910.095883,-71706.538613
560.891287,-296.082377,30052.361245,-78601.398095
560.893844,-7550.100608,-7698.141797,-77835.302597
560.896401,19689.478057,444.123565,-69101.813920
560.898958,18209.066173,21465.972318,-71706.538613
560.901515,-10955.047942,10066.800811,-80593.246390
560.904072,-12731.542202,-7994.224174,-80133.589091
560.906629,-3404.947333,-9474.636058,-77988.521696
560.909186,1332.370696,0.000000,-73698.386908
560.911743,-1184.329507,13175.665768,-74158.044206
560.914299,296.082377,15100.201217,-77988.521696
560.916856,-1924.535449,-1776.494261,-79367.493593
560.919413,-1628.453072,2220.617826,-76915.987999
560.921970,-740.205942,4293.194464,-75230.577904
560.924527,-3108.864956,-16284.530724,-75077.358804
560.927084,11251.130318,-12287.418637,-74158.044206
560.929641,4145.153275,1184.329507,-75537.016103
560.932198,4737.318029,9326.594869,-75996.673402
560.934755,4145.153275,-5477.523971,-75077.358804
560.937312,8290.306550,-12287.418637,-72012.976812
560.939868,13767.830521,-7994.224174,-72166.195912
560.942425,-3108.864956,-10510.924376,-76456.330700
560.944982,2220.617826,15396.283594,-76303.111601
560.947539,8142.265362,3256.906145,-75077.358804
560.950096,19393.395680,-54183.074954,-70480.785816
560.952653,1480.411884,1184.329507,-73545.167808
560.955210,-20281.642811,51518.333563,-78601.398095
560.957767,0.000000,-20577.725188,-77375.645298
560.960324,21317.931130,-18357.107362,-72012.976812
560.962881,7550.100608,-4145.153275,-77375.645298
560.965438,-17616.901420,5625.565159,-77835.302597
560.967994,-19097.313304,148.041188,-76762.768900
560.970551,-1924.535449,-4589.276840,-76149.892501
560.973108,4293.194464,-2960.823768,-75230.577904
560.975665,-740.205942,296.082377,-77069.207099
560.978222,-8142.265362,-11399.171507,-77375.645298
560.980779,4441.235652,4293.194464,-74617.701505
560.983336,-10066.800811,19985.560434,-75690.235202
560.985893,1184.329507,10214.842000,-74924.139704
560.988450,10066.800811,9326.594869,-74464.482406
560.991005,3256.906145,-7105.977043,-75996.673402
560.993561,1480.411884,4885.359217,-75230.577904
560.996117,9178.553681,5773.606348,-72472.634111
560.998673,15988.448347,-5477.523971,-74158.044206
561.001230,-5181.441594,1776.494261,-77222.426198
561.003786,-7254.018232,12287.418637,-76303.111601
561.006342,1184.329507,17616.901420,-75230.577904
561.008899,3552.988522,-15544.324782,-74004.825107
561.011455,-10362.883188,10066.800811,-75996.673402
561.014011,-26647.413912,21021.848753,-80746.465489
561.016567,-9474.636058,22058.137072,-77222.426198
561.019124,10658.965565,8290.306550,-75230.577904
561.021680,9622.677246,9918.759623,-71553.319513
561.024236,2960.823768,15248.242405,-74158.044206
561.026793,-2516.700203,11547.212695,-75383.797003
561.029349,-4885.359217,8586.388927,-77988.521696
561.031905,-5625.565159,13027.624579,-77069.207099
561.034461,2812.782580,7698.141797,-74924.139704
561.037018,13471.748144,15248.242405,-72472.634111
561.039574,148.041188,1628.453072,-75077.358804
561.042130,-1628.453072,-592.164754,-76915.987999
561.044687,7994.224174,11843.295072,-74924.139704
561.047243,17320.819043,-10955.047942,-74158.044206
561.049799,1332.370696,-18357.107362,-74311.263306
561.052355,-2072.576638,-9770.718434,-76456.330700
561.054912,-9326.594869,1776.494261,-76915.987999
561.057468,-5329.482782,-6661.853478,-77222.426198
561.060024,7994.224174,4589.276840,-74924.139704
561.062581,-7254.018232,2960.823768,-76149.892501
561.065137,-16432.571912,-9326.594869,-75843.454302
561.067693,444.123565,-10955.047942,-75843.454302
561.070249,13323.706956,18209.066173,-73085.510509
561.072806,1924.535449,21169.889941,-75690.235202
561.075362,10510.924376,-11695.253884,-73238.729609
561.077918,24130.713709,-54183.074954,-70021.128517
561.080475,11547.212695,-26351.331535,-72779.072310
561.083031,-24278.754898,22946.384202,-79367.493593
561.085587,-14952.160028,14359.995275,-79367.493593
561.088143,14359.995275,-5033.400406,-75077.358804
561.090700,6957.935855,-15988.448347,-76456.330700
561.093256,-14508.036463,-6217.729913,-75843.454302
561.095813,-13027.624579,15396.283594,-75996.673402
561.098369,-12879.583391,8586.388927,-78294.959896
561.100926,4589.276840,-15988.448347,-77528.864398
561.103482,10658.965565,-16432.571912,-74158.044206
561.106038,1036.288319,14211.954086,-75537.016103
561.108595,-20873.807564,12583.501014,-77069.207099
561.111151,11103.089130,2960.823768,-73851.606007
561.113708,20281.642811,15248.242405,-73698.386908
561.116264,-5625.565159,6957.935855,-77375.645298
561.118821,-11251.130318,6513.812290,-77069.207099
561.121377,10362.883188,148.041188,-73238.729609
561.123934,17616.901420,-8438.347739,-73545.167808
561.126490,-11843.295072,6365.771101,-77375.645298
561.129047,-10510.924376,23982.672521,-77835.302597
561.131603,5477.523971,296.082377,-75077.358804
561.134160,13027.624579,296.082377,-71093.662214
561.136716,6069.688724,-16432.571912,-72779.072310
561.139272,4145.153275,-3849.070898,-73391.948708
561.141829,-296.082377,22798.343014,-77069.207099
561.144385,3701.029710,10066.800811,-75690.235202
561.146942,6809.894666,-8290.306550,-71706.538613
561.149498,12731.542202,10362.883188,-69867.909418
561.152055,9918.759623,6513.812290,-72625.853210
561.154611,-2516.700203,4145.153275,-76915.987999
561.157168,-5625.565159,888.247130,-78601.398095
561.159724,-8586.388927,-592.164754,-76762.768900
561.162281,-1776.494261,15544.324782,-74770.920605
561.164837,7846.182985,15544.324782,-75077.358804
561.167394,-6513.812290,-6069.688724,-79214.274493
561.169950,-6957.935855,7254.018232,-78141.740796
561.172506,7550.100608,-1184.329507,-76762.768900
561.175063,6365.771101,-14063.912898,-74770.920605
561.177619,12287.418637,-13175.665768,-75077.358804
561.180176,9474.636058,-8142.265362,-74924.139704
561.182732,740.205942,-5181.441594,-75843.454302
561.185289,11695.253884,-6661.853478,-74770.920605
561.187845,7105.977043,-9918.759623,-74311.263306
561.190402,-3404.947333,-11991.336260,-75077.358804
561.192958,-7254.018232,-17024.736666,-75690.235202
561.195514,10510.924376,2368.659014,-73238.729609
561.198070,9178.553681,-24574.837274,-74617.701505
561.200625,4293.194464,-23982.672521,-73391.948708
561.203181,-3997.112087,-12435.459826,-74770.920605
561.205737,2072.576638,-14656.077652,-73851.606007
561.208292,7698.141797,-11695.253884,-75077.358804
561.210848,148.041188,-12731.542202,-77682.083497
561.213404,-7105.977043,-10807.006753,-76915.987999
561.215959,-6217.729913,3256.906145,-75537.016103
561.218515,-6365.771101,13471.748144,-73851.606007
561.221071,3849.070898,-740.205942,-74311.263306
561.223626,7550.100608,-13471.748144,-74770.920605
561.226182,2220.617826,1776.494261,-75077.358804
561.228738,-148.041188,-1036.288319,-75537.016103
561.231293,-3701.029710,-13027.624579,-74004.825107
561.233849,17024.736666,8438.347739,-71706.538613
561.236405,-592.164754,23834.631332,-75383.797003
561.238961,-10362.883188,14952.160028,-77988.521696
561.241516,11251.130318,-3701.029710,-72779.072310
561.244072,10362.883188,-5477.523971,-75996.673402
561.246628,-11843.295072,7550.100608,-76609.549800
561.249183,-13767.830521,17320.819043,-78448.178995
561.251739,12583.501014,15840.407159,-75690.235202
561.254295,16876.695478,-1776.494261,-74617.701505
561.256850,3849.070898,7105.977043,-75690.235202
561.259406,1184.329507,1332.370696,-74924.139704
561.261962,26203.290347,-17320.819043,-72779.072310
561.264517,37602.461854,-21317.931130,-70480.785816
561.267073,12287.418637,-592.164754,-75843.454302
561.269629,-20725.766376,15100.201217,-80899.684589
561.272185,-16136.489536,1924.535449,-77222.426198
561.274740,-3849.070898,-2516.700203,-75996.673402
561.277296,17468.860231,-4145.153275,-71553.319513
561.279852,16432.571912,6513.812290,-73545.167808
561.282407,-17616.901420,-4441.235652,-78141.740796
561.284963,-17320.819043,-2220.617826,-74617.701505
561.287519,5625.565159,14656.077652,-71859.757712
561.290074,3997.112087,8734.430116,-74464.482406
561.292630,-13619.789333,1776.494261,-77682.083497
561.295186,-8438.347739,-3849.070898,-76303.111601
561.297742,4885.359217,-13767.830521,-72012.976812
561.300297,17172.777854,-5773.606348,-71093.662214
561.302853,-296.082377,-4293.194464,-74004.825107
561.305409,888.247130,-1184.329507,-75077.358804
561.307965,13027.624579,-12287.418637,-75690.235202
561.310521,6809.894666,-10214.842000,-75690.235202
561.313076,-444.123565,-13323.706956,-76149.892501
561.315632,-740.205942,4145.153275,-76303.111601
561.318188,1924.535449,-3108.864956,-76762.768900
561.320744,-6661.853478,19393.395680,-77988.521696
561.323299,-12583.501014,14804.118840,-77988.521696
561.325855,-6661.853478,-26351.331535,-75690.235202
561.328411,4885.359217,-22206.178260,-73698.386908
561.330967,-7254.018232,-18653.189738,-77528.864398
561.333523,-9622.677246,-4589.276840,-77222.426198
561.336078,7105.977043,-1776.494261,-76609.549800
561.338634,9326.594869,-17616.901420,-74464.482406
561.341190,4737.318029,-19393.395680,-74311.263306
561.343746,-11251.130318,888.247130,-76762.768900
561.346302,-9622.677246,740.205942,-78601.398095
561.348857,-3997.112087,-18209.066173,-75996.673402
561.351413,11547.212695,1480.411884,-73698.386908
561.353969,-16580.613101,23242.466579,-77222.426198
561.356525,-10214.842000,15988.448347,-78141.740796
561.359080,12879.583391,11843.295072,-74464.482406
561.361636,9178.553681,592.164754,-75383.797003
561.364192,-3256.906145,2516.700203,-76456.330700
561.366748,3108.864956,8438.347739,-73851.606007
561.369304,16136.489536,740.205942,-73085.510509
561.371859,2812.782580,5033.400406,-75230.577904
561.374415,-6365.771101,9178.553681,-76609.549800
561.376971,1480.411884,20133.601622,-73391.948708
561.379527,14656.077652,444.123565,-73391.948708
561.382083,20429.683999,-18209.066173,-70940.443115
561.384638,17912.983796,4737.318029,-70940.443115
561.387194,4441.235652,14656.077652,-72779.072310
561.389750,17172.777854,-17616.901420,-72779.072310
561.392306,19097.313304,-2368.659014,-69255.033019
561.394861,7846.182985,10955.047942,-73698.386908
561.397417,-10510.924376,11399.171507,-78294.959896
561.399972,-8734.430116,8142.265362,-79980.369991
561.402528,-13915.871710,6365.771101,-77682.083497
561.405083,4293.194464,17320.819043,-73698.386908
561.407638,3849.070898,18209.066173,-74464.482406
561.410193,-6513.812290,-1332.370696,-78141.740796
561.412748,-2960.823768,10362.883188,-77222.426198
561.415304,7402.059420,-10362.883188,-76456.330700
561.417859,2368.659014,-15692.365970,-75383.797003
561.420414,7550.100608,-11399.171507,-75230.577904
561.422969,-4441.235652,-6661.853478,-76149.892501
561.425524,-1628.453072,-5329.482782,-75537.016103
561.428079,888.247130,-7402.059420,-75383.797003
561.430635,-4737.318029,-4737.318029,-77222.426198
561.433190,-9030.512492,-11399.171507,-76149.892501
561.435745,1628.453072,-19837.519246,-75996.673402
561.438300,148.041188,-21614.013506,-74617.701505
561.440855,-4885.359217,-34197.514520,-75690.235202
561.443410,-7698.141797,-14359.995275,-77835.302597
561.445966,-14211.954086,28127.825796,-77375.645298
561.448521,-18653.189738,25907.207970,-79520.712692
561.451076,-3997.112087,-3552.988522,-77682.083497
561.453631,-7698.141797,-16136.489536,-78141.740796
561.456186,-5033.400406,7994.224174,-75077.358804
561.458742,4293.194464,3404.947333,-74617.701505
561.461297,11843.295072,-2960.823768,-74004.825107
561.463852,-6809.894666,-16136.489536,-75690.235202
561.466407,-3256.906145,-6957.935855,-75383.797003
561.468962,4885.359217,-15396.283594,-74464.482406
561.471517,10362.883188,-4293.194464,-72012.976812
561.474073,-15692.365970,19985.560434,-74924.139704
561.476628,-13027.624579,19985.560434,-76609.549800
561.479183,7698.141797,10362.883188,-73085.510509
561.481738,11103.089130,-8142.265362,-74158.044206
561.484293,-6513.812290,-4145.153275,-75996.673402
561.486849,4293.194464,-1036.288319,-74158.044206
561.489404,10510.924376,2220.617826,-73851.606007
561.491959,11251.130318,5329.482782,-74311.263306
561.494514,-9030.512492,6661.853478,-77528.864398
561.497069,-5773.606348,-8142.265362,-75537.016103
561.499624,12583.501014,-7994.224174,-73851.606007
561.502179,-296.082377,6069.688724,-76609.549800
561.504735,-13323.706956,13767.830521,-79367.493593
561.507290,-888.247130,7402.059420,-75843.454302
561.509845,25611.125593,-4293.194464,-71553.319513
561.512400,14804.118840,17468.860231,-71706.538613
561.514955,-7698.141797,15100.201217,-77835.302597
561.517510,-9474.636058,-9918.759623,-76762.768900
561.520065,22798.343014,-8438.347739,-74004.825107
561.522620,23242.466579,-1924.535449,-72472.634111
561.525175,-2220.617826,6809.894666,-75077.358804
561.527730,2664.741391,9918.759623,-75230.577904
561.530285,10955.047942,-3404.947333,-75690.235202
561.532840,7994.224174,-13471.748144,-75690.235202
561.535395,-4885.359217,1480.411884,-77069.207099
561.537950,-12731.542202,-10955.047942,-78601.398095
561.540505,6365.771101,-10214.842000,-72932.291410
561.543061,10658.965565,-740.205942,-72166.195912
561.545616,-888.247130,0.000000,-75230.577904
561.548171,7105.977043,-12435.459826,-75996.673402
561.550726,7402.059420,-10658.965565,-74617.701505
561.553281,10362.883188,-16136.489536,-74311.263306
561.555836,4441.235652,-9770.718434,-74464.482406
561.558391,3256.906145,-19837.519246,-74924.139704
561.560946,3701.029710,-13619.789333,-74770.920605
561.563501,-1332.370696,-15692.365970,-75230.577904
561.566056,-4293.194464,-7846.182985,-75690.235202
561.568611,-740.205942,-8882.471304,-77069.207099
561.571166,-12435.459826,-12879.583391,-77375.645298
561.573721,-7846.182985,-10214.842000,-75690.235202
561.576276,5033.400406,888.247130,-74004.825107
561.578831,-11547.212695,8438.347739,-76609.549800
561.581386,-21317.931130,3256.906145,-77988.521696
561.583941,-17468.860231,-5773.606348,-78141.740796
561.586495,-1184.329507,-17172.777854,-75996.673402
561.589050,12583.501014,8142.265362,-73545.167808
561.591604,-17320.819043,20281.642811,-76762.768900
561.594158,-10807.006753,9030.512492,-77682.083497
561.596713,9326.594869,9178.553681,-73238.729609
561.599267,7846.182985,-2812.782580,-74464.482406
561.601822,-444.123565,2664.741391,-75537.016103
561.604376,5921.647536,-3552.988522,-76915.987999
561.606930,-8142.265362,2220.617826,-77222.426198
561.609485,-6365.771101,12435.459826,-77528.864398
561.612039,4589.276840,17468.860231,-75690.235202
561.614593,4589.276840,-592.164754,-73698.386908
561.617148,12287.418637,888.247130,-75077.358804
561.619702,23538.548956,-20725.766376,-72166.195912
561.622257,27683.702231,-19393.395680,-71859.757712
561.624811,-4589.276840,12435.459826,-78448.178995
561.627365,-30644.525999,18801.230927,-81512.560987
561.629920,-14508.036463,-10807.006753,-76303.111601
561.632474,17616.901420,1184.329507,-70634.004916
561.635029,10214.842000,25611.125593,-74464.482406
561.637583,-148.041188,8290.306550,-77528.864398
561.640137,4441.235652,-11547.212695,-76762.768900
561.642692,3552.988522,-2812.782580,-73851.606007
561.645246,7550.100608,6809.894666,-72932.291410
561.647800,7550.100608,12731.542202,-74464.482406
561.650355,2812.782580,-19837.519246,-76456.330700
561.652909,-4885.359217,-8882.471304,-76303.111601
561.655464,-11399.171507,-2664.741391,-76762.768900
561.658018,-3552.988522,-296.082377,-75077.358804
561.660572,6513.812290,-1480.411884,-72012.976812
561.663127,3997.112087,3108.864956,-72932.291410
561.665681,8290.306550,-10214.842000,-73851.606007
561.668236,2220.617826,-9178.553681,-73085.510509
561.670790,-4293.194464,-11695.253884,-75230.577904
561.673344,-444.123565,2072.576638,-76456.330700
561.675899,-6217.729913,14952.160028,-75230.577904
561.678453,592.164754,29164.114115,-75843.454302
561.681007,30792.567187,-42191.738694,-71400.100414
561.683562,22206.178260,-34937.720462,-72166.195912
561.686116,-17764.942608,-1036.288319,-79673.931792
561.688671,-7105.977043,5477.523971,-77222.426198
561.691226,17616.901420,-4737.318029,-75996.673402
561.693780,11103.089130,-7846.182985,-72625.853210
561.696335,14508.036463,-2812.782580,-73698.386908
561.698890,-6217.729913,-10066.800811,-78448.178995
561.701444,-444.123565,-5181.441594,-76915.987999
561.703999,4737.318029,-17320.819043,-75996.673402
561.706554,11399.171507,-9178.553681,-75077.358804
561.709108,14359.995275,11251.130318,-74464.482406
561.711663,1332.370696,17172.777854,-76456.330700
561.714217,-7550.100608,13619.789333,-77375.645298
561.716772,3108.864956,-3701.029710,-76762.768900
561.719327,2664.741391,-1036.288319,-75230.577904
561.721881,4589.276840,5181.441594,-73851.606007
561.724436,17024.736666,3256.906145,-73085.510509
561.726991,4145.153275,8882.471304,-75230.577904
561.729545,-7402.059420,-4589.276840,-75843.454302
561.732100,3256.906145,1332.370696,-72625.853210
561.734655,19393.395680,-19097.313304,-72625.853210
561.737209,6957.935855,-3552.988522,-72319.415011
561.739764,9474.636058,-8142.265362,-72779.072310
561.742319,1480.411884,4145.153275,-75843.454302
561.744873,-5329.482782,9030.512492,-74311.263306
561.747428,-4737.318029,5181.441594,-74464.482406
561.749982,5921.647536,1036.288319,-73698.386908
561.752537,19689.478057,2812.782580,-73391.948708
561.755092,-4145.153275,-4885.359217,-77222.426198
561.757646,-15840.407159,7550.100608,-76149.892501
561.760201,4589.276840,12139.377449,-75230.577904
561.762756,5181.441594,296.082377,-74158.044206
561.765310,148.041188,5181.441594,-75843.454302
561.767865,-5033.400406,-5033.400406,-77988.521696
561.770420,-8734.430116,-14211.954086,-77835.302597
561.772974,7698.141797,-7550.100608,-74464.482406
561.775529,7698.141797,-1332.370696,-74924.139704
561.778083,-740.205942,-8438.347739,-75690.235202
561.780638,7698.141797,-8438.347739,-75690.235202
561.783193,-740.205942,-4145.153275,-77528.864398
561.785747,-4145.153275,-444.123565,-76303.111601
561.788264,148.041188,-20725.766376,-75996.673402
561.790781,3849.070898,-9622.677246,-74924.139704
561.793298,-20725.766376,12287.418637,-78141.740796
561.795815,-21021.848753,7105.977043,-77222.426198
561.798331,20133.601622,-16284.530724,-72319.415011
561.800848,19541.436869,-15100.201217,-71706.538613
561.803365,13471.748144,-13915.871710,-74617.701505
561.805882,-11991.336260,13027.624579,-75537.016103
561.808399,-19985.560434,15840.407159,-77375.645298
561.810916,12435.459826,-14804.118840,-73545.167808
561.813432,23834.631332,-14359.995275,-71706.538613
561.815949,-3108.864956,1332.370696,-76149.892501
561.818466,-15988.448347,-16728.654289,-78754.617194
561.820983,6957.935855,-11103.089130,-73238.729609
561.823500,8882.471304,27979.784608,-72472.634111
561.826016,-11991.336260,21465.972318,-78294.959896
561.828533,-6513.812290,4293.194464,-76915.987999
561.831050,9622.677246,-6957.935855,-75690.235202
561.833567,3997.112087,-3256.906145,-75077.358804
561.836084,-5181.441594,10066.800811,-75230.577904
561.838601,11399.171507,9030.512492,-74924.139704
561.841117,9918.759623,4737.318029,-75230.577904
561.843634,148.041188,-2960.823768,-76303.111601
561.846151,-5033.400406,6513.812290,-75077.358804
561.848668,-14359.995275,29164.114115,-78601.398095
561.851185,-19393.395680,-2960.823768,-78601.398095
561.853701,-1332.370696,16284.530724,-75690.235202
561.856218,-9178.553681,29312.155303,-75996.673402
561.858735,-3849.070898,10066.800811,-75537.016103
561.861252,3404.947333,-148.041188,-74770.920605
561.863769,296.082377,13323.706956,-75383.797003
561.866286,3997.112087,13027.624579,-74617.701505
561.868802,7105.977043,10807.006753,-74617.701505
561.871319,0.000000,-2812.782580,-75383.797003
561.873836,6069.688724,9178.553681,-73545.167808
561.876353,6365.771101,4885.359217,-72932.291410
561.878870,3701.029710,-14656.077652,-74924.139704
561.881386,-6513.812290,-5329.482782,-76456.330700
561.883903,-9030.512492,-8882.471304,-77988.521696
561.886420,2664.741391,-4145.153275,-74617.701505
561.888945,9178.553681,-444.123565,-72779.072310
561.891470,3552.988522,11399.171507,-74004.825107
561.893995,7698.141797,-13027.624579,-75383.797003
561.896520,4589.276840,-18653.189738,-74311.263306
561.899046,-2220.617826,-11843.295072,-77069.207099
561.901571,-7105.977043,-6513.812290,-77222.426198
561.904096,-9770.718434,13915.871710,-78294.959896
561.906621,-11251.130318,19097.313304,-75843.454302
561.909146,-1776.494261,5625.565159,-74004.825107
561.911671,19097.313304,-31976.896694,-74617.701505
561.914196,11695.253884,-17024.736666,-73238.729609
561.916721,3849.070898,-4737.318029,-76149.892501
561.919246,5329.482782,-6661.853478,-76609.549800
561.921771,1332.370696,-7994.224174,-75383.797003
561.924297,3849.070898,-10066.800811,-75843.454302
561.926822,-2368.659014,-5921.647536,-76149.892501
561.929347,-3701.029710,-11695.253884,-76303.111601
561.931872,9030.512492,10955.047942,-74158.044206
561.934397,-8882.471304,20281.642811,-76609.549800
561.936922,-444.123565,9178.553681,-76303.111601
561.939447,12583.501014,4885.359217,-73085.510509
561.941972,7698.141797,-2812.782580,-74158.044206
561.944497,1628.453072,5033.400406,-75690.235202
561.947022,2960.823768,6365.771101,-77222.426198
561.949548,-15840.407159,8882.471304,-78601.398095
561.952073,-4885.359217,6661.853478,-77835.302597
561.954598,-148.041188,-3256.906145,-74770.920605
561.957123,9326.594869,-1628.453072,-71400.100414
561.959648,11251.130318,-18801.230927,-74617.701505
561.962173,-5181.441594,-296.082377,-76149.892501
561.964698,-10807.006753,-9178.553681,-78448.178995
561.967223,2664.741391,13027.624579,-74617.701505
561.969748,5625.565159,17468.860231,-73238.729609
561.972273,-11399.171507,14508.036463,-75690.235202
561.974799,-14804.118840,10066.800811,-75996.673402
561.977324,16432.571912,-1480.411884,-73238.729609
561.979849,16284.530724,592.164754,-74158.044206
561.982374,-11399.171507,8438.347739,-75996.673402
561.984899,-2516.700203,4589.276840,-73851.606007
561.987424,3701.029710,3997.112087,-73851.606007
561.989955,10955.047942,-10510.924376,-73851.606007
561.992487,148.041188,-2220.617826,-76149.892501
561.995018,-14211.954086,-8438.347739,-78448.178995
561.997550,3997.112087,-6069.688724,-75077.358804
562.000081,13471.748144,1924.535449,-72166.195912
562.002613,2960.823768,-7994.224174,-74158.044206
562.005144,3997.112087,-13323.706956,-76609.549800
562.007676,-3256.906145,-7550.100608,-76609.549800
562.010208,-3997.112087,-17468.860231,-77222.426198
562.012739,2368.659014,-9622.677246,-75383.797003
562.015271,9918.759623,1184.329507,-72472.634111
562.017802,24574.837274,-37602.461854,-71246.881314
562.020334,12287.418637,-45448.644839,-74770.920605
562.022865,-20429.683999,-888.247130,-78907.836294
562.025397,-17468.860231,2664.741391,-79520.712692
562.027929,1628.453072,-6957.935855,-77222.426198
562.030460,7994.224174,-10658.965565,-72012.976812
562.032992,17024.736666,-8142.265362,-72932.291410
562.035523,-10066.800811,-1036.288319,-78141.740796
562.038055,-14952.160028,-7105.977043,-78448.178995
562.040586,-740.205942,-19097.313304,-75537.016103
562.043118,16876.695478,10214.842000,-73085.510509
562.045650,-14063.912898,19985.560434,-77222.426198
562.048181,-8290.306550,14804.118840,-76762.768900
562.050713,-2220.617826,4441.235652,-75690.235202
562.053244,1480.411884,-4589.276840,-75537.016103
562.055776,-7254.018232,2960.823768,-76303.111601
562.058308,13471.748144,3108.864956,-74311.263306
562.060839,5625.565159,3701.029710,-75690.235202
562.063371,-15100.201217,4145.153275,-77069.207099
562.065902,4441.235652,17912.983796,-73851.606007
562.068434,7402.059420,20429.683999,-73851.606007
562.070965,-15396.283594,23834.631332,-78907.836294
562.073497,-3256.906145,-22798.343014,-75077.358804
562.076029,26943.496289,148.041188,-72472.634111
562.078560,27535.661042,5033.400406,-69101.813920
562.081092,-14656.077652,28275.866984,-78448.178995
562.083623,-22798.343014,-11547.212695,-77988.521696
562.086155,13175.665768,-740.205942,-72625.853210
562.088686,5773.606348,21465.972318,-74004.825107
562.091224,-7550.100608,23538.548956,-77835.302597
562.093761,-8290.306550,3108.864956,-77988.521696
562.096299,7698.141797,-3256.906145,-73851.606007
562.098836,4145.153275,11251.130318,-72166.195912
562.101374,-3108.864956,-15840.407159,-76915.987999
562.103912,-6365.771101,-16580.613101,-76915.987999
562.106449,5773.606348,-9178.553681,-76149.892501
562.108987,1184.329507,1924.535449,-76303.111601
562.111524,-4589.276840,1184.329507,-74617.701505
562.114062,-5921.647536,13915.871710,-76303.111601
562.116599,-740.205942,-296.082377,-75843.454302
562.119137,9326.594869,-18505.148550,-77222.426198
562.121674,7846.182985,8290.306550,-75996.673402
562.124212,5033.400406,-9770.718434,-76762.768900
562.126749,11399.171507,-12731.542202,-72319.415011
562.129287,14359.995275,-21465.972318,-72319.415011
562.131824,740.205942,-12583.501014,-74924.139704
562.134362,-13323.706956,3256.906145,-79827.150892
562.136899,-8882.471304,-3256.906145,-77988.521696
562.139437,7698.141797,-13619.789333,-75537.016103
562.141974,16728.654289,-13323.706956,-72625.853210
562.144512,-5181.441594,10214.842000,-76303.111601
562.147049,-16876.695478,4885.359217,-77528.864398
562.149587,-2960.823768,-12879.583391,-75077.358804
562.152125,21317.931130,1628.453072,-72472.634111
562.154662,-6661.853478,15100.201217,-75537.016103
562.157200,592.164754,7402.059420,-75383.797003
562.159737,9474.636058,6957.935855,-73085.510509
562.162275,-888.247130,11399.171507,-73085.510509
562.164812,3108.864956,9918.759623,-75690.235202
562.167350,-1332.370696,4293.194464,-76915.987999
562.169887,-15988.448347,1480.411884,-76609.549800
562.172425,-10214.842000,10066.800811,-76456.330700
562.174962,5773.606348,4885.359217,-73085.510509
562.177500,2960.823768,7254.018232,-72319.415011
562.180037,7402.059420,-26499.372724,-73851.606007
562.182575,4293.194464,-6809.894666,-75537.016103
562.185112,148.041188,2516.700203,-75843.454302
562.187650,11399.171507,-6661.853478,-75383.797003
562.190187,12139.377449,8290.306550,-72012.976812
562.192729,5181.441594,7846.182985,-74464.482406
562.195271,-11251.130318,8882.471304,-77528.864398
562.197813,-15396.283594,4737.318029,-79367.493593
562.200355,-3256.906145,9326.594869,-78448.178995
562.202897,5773.606348,13471.748144,-75690.235202
562.205439,3108.864956,3997.112087,-75077.358804
562.207981,-5033.400406,15692.365970,-73698.386908
562.210523,2220.617826,-11843.295072,-75996.673402
562.213065,5921.647536,-15544.324782,-76456.330700
562.215607,8882.471304,-6957.935855,-77069.207099
562.218149,-5773.606348,1480.411884,-77375.645298
562.220691,-3701.029710,4441.235652,-75077.358804
562.223233,1480.411884,13915.871710,-72472.634111
562.225774,14952.160028,-4589.276840,-72625.853210
562.228316,10955.047942,-6809.894666,-74770.920605
562.230858,-2072.576638,-27683.702231,-79673.931792
562.233400,-148.041188,-30496.484810,-74924.139704
562.235942,-5625.565159,-3404.947333,-73851.606007
562.238484,-11399.171507,39378.956114,-76456.330700
562.241026,-15248.242405,17616.901420,-78294.959896
562.243568,592.164754,-10362.883188,-75843.454302
562.246110,9030.512492,-5329.482782,-74770.920605
562.248652,4441.235652,2960.823768,-74617.701505
562.251194,-2072.576638,-15544.324782,-76609.549800
562.253736,-5773.606348,-16580.613101,-74311.263306
562.256278,592.164754,-592.164754,-74617.701505
562.258820,-3701.029710,-2516.700203,-76456.330700
562.261361,3997.112087,5625.565159,-76762.768900
562.263903,-10510.924376,15248.242405,-76456.330700
562.266445,1924.535449,19393.395680,-74311.263306
562.268987,10066.800811,16432.571912,-73545.167808
562.271529,4293.194464,-8882.471304,-74770.920605
562.274071,-592.164754,-10362.883188,-76149.892501
562.276613,13323.706956,4589.276840,-75996.673402
562.279155,-7105.977043,11399.171507,-78141.740796
562.281697,-10807.006753,11251.130318,-77682.083497
562.284239,3552.988522,-2812.782580,-73698.386908
562.286781,6661.853478,9326.594869,-72012.976812
562.289323,-19985.560434,23538.548956,-79673.931792
562.291865,-27387.619854,-18061.024985,-79827.150892
562.294411,2220.617826,-8586.388927,-75843.454302
562.296957,37306.379477,-592.164754,-67722.842023
562.299503,23242.466579,33901.432144,-71400.100414
562.302049,-30052.361245,26795.455100,-79214.274493
562.304596,-7550.100608,-16876.695478,-77069.207099
562.307142,27535.661042,-3256.906145,-71246.881314
562.309688,12139.377449,10955.047942,-74770.920605
562.312234,-7105.977043,18209.066173,-77069.207099
562.314780,-8586.388927,-3701.029710,-75690.235202
562.317327,9030.512492,1184.329507,-71553.319513
562.319873,10955.047942,-4145.153275,-72932.291410
562.322419,-6365.771101,-15692.365970,-77375.645298
562.324965,148.041188,-7550.100608,-77069.207099
562.327511,4589.276840,-1628.453072,-75690.235202
562.330058,2072.576638,-5181.441594,-73085.510509
562.332604,3404.947333,148.041188,-73851.606007
562.335150,-18505.148550,4737.318029,-77988.521696
562.337696,-8438.347739,-27683.702231,-79520.712692
562.340242,4145.153275,-22206.178260,-74924.139704
562.342789,888.247130,-8586.388927,-75996.673402
562.345335,-12139.377449,9326.594869,-74924.139704
562.347881,-7105.977043,19097.313304,-77069.207099
562.350427,444.123565,7698.141797,-73698.386908
562.352973,9030.512492,-10658.965565,-75690.235202
562.355520,6069.688724,-21021.848753,-74770.920605
562.358066,15100.201217,-9326.594869,-73851.606007
562.360612,-9622.677246,7994.224174,-75383.797003
562.363158,-17024.736666,-4885.359217,-77069.207099
562.365704,1628.453072,-5477.523971,-73851.606007
562.368251,18505.148550,5921.647536,-73851.606007
562.370797,-8142.265362,3256.906145,-78141.740796
562.373343,3404.947333,1628.453072,-76609.549800
562.375889,10807.006753,13619.789333,-72472.634111
562.378435,-1628.453072,18949.272115,-73238.729609
562.380982,4885.359217,2812.782580,-74311.263306
562.383528,888.247130,-4737.318029,-77069.207099
562.386074,-9326.594869,2368.659014,-78294.959896
562.388620,4293.194464,7105.977043,-74924.139704
562.391166,9326.594869,34789.679274,-72472.634111
562.393713,5625.565159,17172.777854,-74924.139704
562.396227,8142.265362,-14359.995275,-73698.386908
562.398740,25315.043216,-296.082377,-73545.167808
562.401254,17912.983796,20281.642811,-75230.577904
562.403768,9770.718434,-1924.535449,-76303.111601
562.406282,12287.418637,5625.565159,-72779.072310
562.408796,5181.441594,16728.654289,-72932.291410
562.411310,7994.224174,-3849.070898,-72779.072310
562.413823,9178.553681,-16284.530724,-75383.797003
562.416337,8142.265362,-6365.771101,-75690.235202
562.418851,10362.883188,13619.789333,-74770.920605
562.421365,4589.276840,13471.748144,-73085.510509
562.423879,1036.288319,-6513.812290,-72625.853210
562.426393,1332.370696,-8290.306550,-73698.386908
562.428906,-2664.741391,-13915.871710,-76609.549800
562.431420,10362.883188,-7846.182985,-75843.454302
562.433934,2220.617826,-888.247130,-75996.673402
562.436448,-6365.771101,-7698.141797,-74617.701505
562.438962,-8734.430116,4145.153275,-74924.139704
562.441476,-13471.748144,1036.288319,-76303.111601
562.443990,1036.288319,11843.295072,-75690.235202
562.446503,8438.347739,12435.459826,-78141.740796
562.449017,-16728.654289,27683.702231,-79673.931792
562.451531,-17320.819043,26499.372724,-76609.549800
562.454045,9326.594869,-19245.354492,-72166.195912
562.456559,22946.384202,-41747.615129,-70940.443115
562.459073,14508.036463,-9770.718434,-75843.454302
562.461586,-2368.659014,148.041188,-79367.493593
562.464100,9178.553681,-24130.713709,-76149.892501
562.466614,12583.501014,-4589.276840,-72166.195912
562.469128,-592.164754,7550.100608,-74464.482406
562.471642,-15988.448347,-15248.242405,-77375.645298
562.474156,8438.347739,-3108.864956,-75843.454302
562.476669,-4737.318029,14508.036463,-77375.645298
562.479183,3404.947333,20577.725188,-75537.016103
562.481697,5625.565159,10807.006753,-73851.606007
562.484211,1776.494261,-10955.047942,-73851.606007
562.486725,1480.411884,592.164754,-73698.386908
562.489239,11547.212695,13175.665768,-76303.111601
562.491752,-13471.748144,5625.565159,-79827.150892
562.494266,-1184.329507,7105.977043,-75537.016103
562.496790,10510.924376,17024.736666,-71246.881314
562.499314,9326.594869,-23242.466579,-71093.662214
562.501838,8142.265362,-19541.436869,-71553.319513
562.504362,-3256.906145,-17616.901420,-75996.673402
562.506886,3849.070898,-4737.318029,-75230.577904
562.509410,18653.189738,4293.194464,-73391.948708
562.511934,10066.800811,-148.041188,-72779.072310
562.514458,1628.453072,6365.771101,-74311.263306
562.516982,-15988.448347,2220.617826,-76609.549800
562.519506,-2516.700203,9918.759623,-76915.987999
562.522030,-1184.329507,4441.235652,-77835.302597
562.524554,2812.782580,4441.235652,-77222.426198
562.527078,2368.659014,8734.430116,-74004.825107
562.529602,5033.400406,-6661.853478,-74004.825107
562.532126,-5625.565159,-14508.036463,-75690.235202
562.534650,-6513.812290,-7846.182985,-78448.178995
562.537174,-888.247130,-2516.700203,-78294.959896
562.539698,3404.947333,4589.276840,-76149.892501
562.542222,2072.576638,9030.512492,-72932.291410
562.544746,17172.777854,-10955.047942,-72012.976812
562.547270,10066.800811,-8142.265362,-73545.167808
562.549794,-8586.388927,-28127.825796,-78754.617194
562.552318,-12731.542202,16580.613101,-80133.589091
562.554842,-11843.295072,25167.002028,-77682.083497
562.557366,-296.082377,-11251.130318,-72012.976812
562.559890,12583.501014,-38934.832549,-71400.100414
562.562414,8290.306550,-16284.530724,-73085.510509
562.564938,888.247130,-12583.501014,-78294.959896
562.567462,-12583.501014,444.123565,-80746.465489
562.569986,-15248.242405,-7698.141797,-78141.740796
562.572510,-7402.059420,-148.041188,-74464.482406
562.575034,3108.864956,4589.276840,-71093.662214
562.577558,9178.553681,-2960.823768,-74924.139704
562.580082,-14211.954086,-5477.523971,-79061.055394
562.582606,6513.812290,6217.729913,-76456.330700
562.585130,9474.636058,17764.942608,-74770.920605
562.587654,-2220.617826,18357.107362,-74004.825107
562.590178,-888.247130,740.205942,-75690.235202
562.592702,-2812.782580,-6069.688724,-76149.892501
562.595226,3997.112087,888.247130,-75996.673402
562.597759,15988.448347,12139.377449,-75537.016103
562.600292,11991.336260,26055.249158,-74004.825107
562.602825,-9030.512492,20429.683999,-77222.426198
562.605357,-15544.324782,2072.576638,-76609.549800
562.607890,7105.977043,15100.201217,-73851.606007
562.610423,17764.942608,10066.800811,-74770.920605
562.612955,17172.777854,5773.606348,-74311.263306
562.615488,5625.565159,148.041188,-75077.358804
562.618021,1036.288319,10658.965565,-73391.948708
562.620553,-10658.965565,12287.418637,-75383.797003
562.623086,4589.276840,1776.494261,-75383.797003
562.625619,2960.823768,-3849.070898,-76303.111601
562.628152,7402.059420,13027.624579,-75383.797003
562.630684,5773.606348,21614.013506,-71859.757712
562.633217,4145.153275,-12583.501014,-72932.291410
562.635750,-3849.070898,-21465.972318,-73391.948708
562.638282,-740.205942,-10362.883188,-75690.235202
562.640815,2368.659014,1332.370696,-77375.645298
562.643348,3552.988522,-592.164754,-75690.235202
562.645880,3256.906145,-7254.018232,-73851.606007
562.648413,8290.306550,-4737.318029,-71553.319513
562.650946,-12435.459826,-15248.242405,-75996.673402
562.653479,-2220.617826,9326.594869,-76149.892501
562.656011,17912.983796,-21614.013506,-75690.235202
562.658544,27387.619854,-20725.766376,-71706.538613
562.661077,6661.853478,-11103.089130,-74617.701505
562.663609,-14804.118840,17172.777854,-76456.330700
562.666142,-19393.395680,5181.441594,-79520.712692
562.668675,-7105.977043,-18801.230927,-75996.673402
562.671207,30348.443622,-18061.024985,-74924.139704
562.673740,4293.194464,8882.471304,-77528.864398
562.676273,-21614.013506,-3108.864956,-78601.398095
562.678806,3552.988522,-2072.576638,-72012.976812
562.681338,26943.496289,6661.853478,-71553.319513
562.683871,-4589.276840,3701.029710,-77222.426198
562.686404,444.123565,0.000000,-78907.836294
562.688936,11399.171507,11843.295072,-75383.797003
562.691469,740.205942,-2220.617826,-72319.415011
562.694002,148.041188,11399.171507,-72779.072310
562.696534,-3404.947333,13027.624579,-75690.235202
562.699074,-6365.771101,-1480.411884,-78448.178995
562.701614,15692.365970,-2072.576638,-74311.263306
562.704154,17468.860231,35381.844028,-72012.976812
562.706694,5773.606348,11103.089130,-74617.701505
562.709234,22354.219448,-24130.713709,-70327.566716
562.711774,39823.079680,-33161.226202,-67109.965625
562.714314,17764.942608,11695.253884,-73851.606007
562.716854,-22650.301825,19097.313304,-83351.190182
562.719393,-23242.466579,3108.864956,-79673.931792
562.721933,-1184.329507,-8734.430116,-74004.825107
562.724473,25315.043216,-5921.647536,-69255.033019
562.727013,9622.677246,16432.571912,-73238.729609
562.729553,-3552.988522,15988.448347,-79980.369991
562.732093,-7402.059420,-8586.388927,-78907.836294
562.734633,8734.430116,5033.400406,-71706.538613
562.737173,5329.482782,-10955.047942,-71859.757712
562.739713,-10066.800811,-15840.407159,-74311.263306
562.742252,592.164754,-16136.489536,-77069.207099
562.744792,-1628.453072,0.000000,-77988.521696
562.747332,-1480.411884,7846.182985,-76915.987999
562.749872,-1184.329507,6809.894666,-74004.825107
562.752412,16284.530724,-9474.636058,-72625.853210
562.754952,18801.230927,3997.112087,-71553.319513
562.757492,8586.388927,16136.489536,-75843.454302
562.760032,5329.482782,-20873.807564,-77069.207099
562.762572,13619.789333,-6661.853478,-73391.948708
562.765111,2516.700203,20281.642811,-77069.207099
562.767651,-12139.377449,18357.107362,-76303.111601
562.770191,-9918.759623,-17024.736666,-77069.207099
562.772731,148.041188,-10066.800811,-75843.454302
562.775271,5921.647536,11991.336260,-76456.330700
562.777811,-3997.112087,-4145.153275,-77069.207099
562.780351,1480.411884,-7550.100608,-74311.263306
562.782891,8438.347739,-19689.478057,-73698.386908
562.785431,7846.182985,-10658.965565,-74004.825107
562.787970,5181.441594,15692.365970,-77222.426198
562.790510,-6365.771101,16136.489536,-78601.398095
562.793050,-1184.329507,12287.418637,-75996.673402
562.795590,7994.224174,1924.535449,-73085.510509
562.798130,-2220.617826,-7402.059420,-74770.920605
562.800676,4885.359217,-5181.441594,-75690.235202
562.803222,-740.205942,13767.830521,-78754.617194
562.805768,-5329.482782,26943.496289,-78141.740796
562.808314,-4737.318029,21910.095883,-76609.549800
562.810860,444.123565,4885.359217,-72625.853210
562.813406,11547.212695,-9326.594869,-72012.976812
562.815952,8882.471304,9918.759623,-72932.291410
562.818497,20577.725188,-2812.782580,-73085.510509
562.821043,9918.759623,1184.329507,-75077.358804
562.823589,6957.935855,5033.400406,-73545.167808
562.826135,-6365.771101,444.123565,-73238.729609
562.828681,2664.741391,3849.070898,-74617.701505
562.831227,148.041188,5625.565159,-76456.330700
562.833773,-740.205942,1036.288319,-78141.740796
562.836319,444.123565,20133.601622,-75230.577904
562.838865,5329.482782,-3552.988522,-73851.606007
562.841411,148.041188,-16284.530724,-73085.510509
562.843957,740.205942,-9474.636058,-75230.577904
562.846503,888.247130,296.082377,-77682.083497
562.849049,2072.576638,1184.329507,-77375.645298
562.851595,3404.947333,-3256.906145,-74004.825107
562.854141,14063.912898,-7254.018232,-70940.443115
562.856687,0.000000,-24426.796086,-75690.235202
562.859232,-9326.594869,-25759.166782,-76915.987999
562.861778,-9918.759623,2072.576638,-80440.027290
562.864324,-14211.954086,6217.729913,-78294.959896
562.866870,-18505.148550,-6069.688724,-77375.645298
562.869416,-16136.489536,2664.741391,-76609.549800
562.871962,-14359.995275,-2220.617826,-76915.987999
562.874508,-20725.766376,3552.988522,-78294.959896
562.877054,-14804.118840,1184.329507,-79673.931792
562.879600,-1332.370696,2072.576638,-77069.207099
562.882146,7846.182985,5921.647536,-72625.853210
562.884692,-444.123565,-15248.242405,-74311.263306
562.887238,-11547.212695,-23982.672521,-76762.768900
562.889784,2220.617826,18061.024985,-75996.673402
562.892330,2368.659014,27683.702231,-77988.521696
562.894876,-6661.853478,15692.365970,-77222.426198
562.897422,1480.411884,-9474.636058,-75077.358804
562.899967,4293.194464,-5477.523971,-72319.415011
562.902518,7846.182985,8290.306550,-73851.606007
562.905068,-11843.295072,17320.819043,-77528.864398
562.907618,-8882.471304,24574.837274,-78601.398095
562.910168,-6069.688724,18801.230927,-76915.987999
562.912719,17912.983796,-8734.430116,-68948.594820
562.915269,30644.525999,-1628.453072,-71400.100414
562.917819,-11991.336260,14211.954086,-78601.398095
562.920370,-27979.784608,26647.413912,-82891.532884
562.922920,-8290.306550,11103.089130,-76456.330700
562.925470,33457.308578,-4885.359217,-68948.594820
562.928020,19245.354492,-1776.494261,-69561.471218
562.930571,-14359.995275,11251.130318,-75996.673402
562.933121,-4441.235652,2072.576638,-77375.645298
562.935671,13915.871710,-2664.741391,-74924.139704
562.938221,13915.871710,2368.659014,-72932.291410
562.940772,4441.235652,-13175.665768,-73698.386908
562.943322,-14804.118840,-17764.942608,-75230.577904
562.945872,2072.576638,-13323.706956,-75077.358804
562.948422,1628.453072,4589.276840,-76456.330700
562.950973,-3404.947333,2072.576638,-76915.987999
562.953523,0.000000,-3552.988522,-74311.263306
562.956073,17912.983796,-11547.212695,-70787.224015
562.958623,7105.977043,-18061.024985,-74158.044206
562.961174,-15396.283594,-1480.411884,-78448.178995
562.963724,-24722.878463,35677.926404,-81818.999186
562.966274,-7698.141797,49741.839302,-83044.751983
562.968824,-27387.619854,32717.102636,-78601.398095
562.971375,-6217.729913,4589.276840,-74770.920605
562.973925,5329.482782,-15692.365970,-71706.538613
562.976475,15692.365970,-14656.077652,-74770.920605
562.979025,-6365.771101,-2516.700203,-79827.150892
562.981576,-9918.759623,-5773.606348,-79214.274493
562.984126,5773.606348,-2516.700203,-73391.948708
562.986676,17320.819043,10658.965565,-72319.415011
562.989226,-9918.759623,1480.411884,-76915.987999
562.991777,4441.235652,444.123565,-77528.864398
562.994327,8734.430116,13323.706956,-75843.454302
562.996877,-3552.988522,21614.013506,-76303.111601
562.999427,148.041188,10362.883188,-74004.825107
563.001978,2368.659014,2812.782580,-74464.482406
563.004531,592.164754,-8290.306550,-74617.701505
563.007085,17912.983796,2072.576638,-74311.263306
563.009639,7994.224174,33901.432144,-77069.207099
563.012193,-8290.306550,15544.324782,-75077.358804
563.014747,25463.084405,-19541.436869,-69101.813920
563.017301,28127.825796,35381.844028,-69714.690318
563.019855,-20725.766376,32865.143825,-82431.875585
563.022409,-21910.095883,2516.700203,-80133.589091
563.024963,15248.242405,4885.359217,-72625.853210
563.027517,6217.729913,26795.455100,-71246.881314
563.030071,2516.700203,26647.413912,-73391.948708
563.032625,-14359.995275,3404.947333,-78448.178995
563.035179,1332.370696,-10066.800811,-75996.673402
563.037733,14804.118840,14359.995275,-72779.072310
563.040287,3849.070898,-4293.194464,-75077.358804
563.042841,-17764.942608,-16432.571912,-76762.768900
563.045395,-13323.706956,-15840.407159,-76149.892501
563.047949,6809.894666,-2368.659014,-74311.263306
563.050503,9918.759623,4589.276840,-75077.358804
563.053057,-1332.370696,-8438.347739,-76456.330700
563.055611,-8438.347739,-4885.359217,-76456.330700
563.058165,-12287.418637,-7846.182985,-75843.454302
563.060719,-1332.370696,-15100.201217,-77222.426198
563.063273,16580.613101,-9474.636058,-74617.701505
563.065827,16580.613101,-11843.295072,-76303.111601
563.068381,-6957.935855,-6217.729913,-79673.931792
563.070935,-21169.889941,17172.777854,-79061.055394
563.073489,-9770.718434,-13027.624579,-74617.701505
563.076043,14359.995275,-18505.148550,-72932.291410
563.078597,1332.370696,3404.947333,-78754.617194
563.081151,-19541.436869,-1184.329507,-80899.684589
563.083705,1184.329507,0.000000,-74924.139704
563.086263,23982.672521,-5625.565159,-70940.443115
563.088820,888.247130,-19837.519246,-72779.072310
563.091377,12139.377449,2072.576638,-74311.263306
563.093935,10510.924376,9030.512492,-75996.673402
563.096492,-3552.988522,16580.613101,-75077.358804
563.099050,5329.482782,6513.812290,-73698.386908
563.101607,-2960.823768,-5477.523971,-75077.358804
563.104165,2960.823768,-5921.647536,-74004.825107
563.106722,5773.606348,18505.148550,-76303.111601
563.109280,-13471.748144,-8734.430116,-79980.369991
563.111837,-10658.965565,6513.812290,-75690.235202
563.114395,-12435.459826,8142.265362,-74770.920605
563.116952,-7550.100608,-1924.535449,-77069.207099
563.119510,-18505.148550,24278.754898,-77528.864398
563.122067,-20281.642811,17468.860231,-79827.150892
563.124625,3256.906145,6957.935855,-77069.207099
563.127182,-6661.853478,7994.224174,-75690.235202
563.129739,-6957.935855,10955.047942,-74464.482406
563.132297,-9178.553681,296.082377,-75077.358804
563.134854,6661.853478,4589.276840,-75537.016103
563.137412,1628.453072,7402.059420,-76915.987999
563.139969,4885.359217,-10807.006753,-76303.111601
563.142527,-3256.906145,-6069.688724,-74770.920605
563.145084,-9918.759623,-9622.677246,-74924.139704
563.147642,-296.082377,-9030.512492,-74924.139704
563.150199,13915.871710,-3404.947333,-74924.139704
563.152757,7698.141797,1628.453072,-75537.016103
563.155314,4145.153275,4441.235652,-76149.892501
563.157872,-18357.107362,-18209.066173,-77682.083497
563.160429,-11843.295072,-21317.931130,-75383.797003
563.162987,-740.205942,1776.494261,-77528.864398
563.165544,-10214.842000,-5181.441594,-78141.740796
563.168101,-5921.647536,-18505.148550,-75230.577904
563.170659,1480.411884,-20725.766376,-73391.948708
563.173216,9030.512492,-11103.089130,-71246.881314
563.175774,14359.995275,-13619.789333,-73698.386908
563.178331,1480.411884,-17616.901420,-76456.330700
563.180889,-7254.018232,-1924.535449,-76762.768900
563.183446,-3404.947333,15840.407159,-73391.948708
563.186004,3552.988522,13619.789333,-73085.510509
563.188563,-7550.100608,10362.883188,-75537.016103
563.191122,7846.182985,-1332.370696,-74770.920605
563.193682,16284.530724,8142.265362,-75537.016103
563.196241,-9178.553681,16136.489536,-77528.864398
563.198800,2516.700203,8586.388927,-77528.864398
563.201360,2220.617826,-4589.276840,-77069.207099
563.203919,-2220.617826,-12139.377449,-75843.454302
563.206478,4441.235652,14804.118840,-76149.892501
563.209037,-14063.912898,1924.535449,-80899.684589
563.211597,-20873.807564,14656.077652,-78907.836294
563.214156,-19393.395680,12287.418637,-75537.016103
563.216715,-16284.530724,22650.301825,-79367.493593
563.219275,-12287.418637,23242.466579,-77069.207099
563.221834,1480.411884,19541.436869,-75690.235202
563.224393,24574.837274,17024.736666,-71093.662214
563.226953,14063.912898,2812.782580,-71400.100414
563.229512,-5329.482782,-5033.400406,-72625.853210
563.232071,3404.947333,2220.617826,-73391.948708
563.234630,8586.388927,3552.988522,-74924.139704
563.237190,5477.523971,18653.189738,-74617.701505
563.239749,6661.853478,-8586.388927,-74924.139704
563.242308,1480.411884,-11991.336260,-73698.386908
563.244868,-1628.453072,-3256.906145,-73545.167808
563.247427,-5033.400406,3701.029710,-75077.358804
563.249986,-1184.329507,444.123565,-75996.673402
563.252546,3404.947333,-11843.295072,-75077.358804
563.255105,17764.942608,-15840.407159,-72625.853210
563.257664,-9622.677246,-30200.402434,-75690.235202
563.260223,-21317.931130,-26795.455100,-76915.987999
563.262783,-22354.219448,-5477.523971,-78907.836294
563.265342,-20133.601622,-24278.754898,-78601.398095
563.267901,-18061.024985,-9474.636058,-78754.617194
563.270461,-15100.201217,-18949.272115,-78754.617194
563.273020,-20133.601622,592.164754,-78601.398095
563.275579,-22946.384202,8882.471304,-79367.493593
563.278138,-11991.336260,-740.205942,-79061.055394
563.280698,16284.530724,4885.359217,-74770.920605
563.283257,17320.819043,-14211.954086,-75383.797003
563.285816,-4293.194464,-19245.354492,-77375.645298
563.288376,-2368.659014,10658.965565,-76609.549800
563.290937,444.123565,23686.590144,-77835.302597
563.293498,4293.194464,20725.766376,-76609.549800
563.296059,5329.482782,-7402.059420,-75690.235202
563.298621,1924.535449,-11251.130318,-75077.358804
563.301182,9326.594869,19689.478057,-73851.606007
563.303743,-6957.935855,18505.148550,-76303.111601
563.306304,3552.988522,-5181.441594,-75690.235202
563.308866,23094.425390,-37306.379477,-73545.167808
563.311427,39378.956114,-46632.974346,-64658.460031
563.313988,-5921.647536,25167.002028,-75383.797003
563.316549,-70023.482113,44264.315332,-87181.667672
563.319111,-38046.585419,13767.830521,-78448.178995
563.321672,34493.596897,11251.130318,-66956.746525
563.324233,36418.132346,6661.853478,-67416.403824
563.326795,-23242.466579,5033.400406,-78601.398095
563.329356,-37306.379477,-17172.777854,-80746.465489
563.331917,2516.700203,-2812.782580,-73085.510509
563.334478,19837.519246,30200.402434,-71246.881314
563.337040,-8438.347739,-4293.194464,-79214.274493
563.339601,-15988.448347,-14359.995275,-77528.864398
563.342162,-12731.542202,-16728.654289,-78294.959896
563.344723,-5477.523971,1924.535449,-77222.426198
563.347285,2368.659014,11695.253884,-75230.577904
563.349846,6217.729913,-2664.741391,-75230.577904
563.352407,444.123565,-13471.748144,-77528.864398
563.354968,-7994.224174,21614.013506,-75537.016103
563.357530,444.123565,-1332.370696,-76456.330700
563.360091,21614.013506,-6217.729913,-72625.853210
563.362652,23538.548956,-25018.960840,-72779.072310
563.365213,17616.901420,-25315.043216,-73085.510509
563.367775,3404.947333,-25167.002028,-76303.111601
563.370336,-10214.842000,-10066.800811,-77375.645298
563.372897,-7254.018232,-13323.706956,-78141.740796
563.375458,2960.823768,-148.041188,-76303.111601
563.378020,17172.777854,7105.977043,-72932.291410
563.380581,6809.894666,-16580.613101,-75996.673402
563.383142,-7994.224174,-16136.489536,-76609.549800
563.385703,-11251.130318,20873.807564,-77069.207099
563.388265,-7698.141797,26647.413912,-78448.178995
563.390826,0.000000,14804.118840,-76456.330700
563.393355,3256.906145,-10066.800811,-74158.044206
563.395885,-6513.812290,-148.041188,-73545.167808
563.398415,-296.082377,22058.137072,-74158.044206
563.400944,-15544.324782,24722.878463,-76456.330700
563.403474,-8586.388927,-8734.430116,-77528.864398
563.406003,10658.965565,-2072.576638,-73698.386908
563.408533,-6957.935855,-740.205942,-74770.920605
563.411062,-20133.601622,-16136.489536,-78448.178995
563.413592,-12583.501014,11695.253884,-76303.111601
563.416122,-7550.100608,27979.784608,-76456.330700
563.418651,12583.501014,15692.365970,-74617.701505
563.421181,9918.759623,5329.482782,-75383.797003
563.423710,-3108.864956,7550.100608,-75077.358804
563.426240,-5625.565159,7402.059420,-74311.263306
563.428769,5477.523971,1628.453072,-74924.139704
563.431299,12583.501014,13323.706956,-74464.482406
563.433829,12731.542202,-9622.677246,-75077.358804
563.436358,2664.741391,-16728.654289,-74617.701505
563.438888,2516.700203,-8438.347739,-74004.825107
563.441417,-3404.947333,-2664.741391,-74004.825107
563.443947,6365.771101,-1036.288319,-75077.358804
563.446476,10066.800811,-7846.182985,-74770.920605
563.449006,148.041188,-9622.677246,-76915.987999
563.451536,-10510.924376,24278.754898,-74924.139704
563.454065,8882.471304,-15396.283594,-73545.167808
563.456595,28571.949361,-23242.466579,-68948.594820
563.459124,18505.148550,6365.771101,-74924.139704
563.461654,-11103.089130,21762.054695,-77375.645298
563.464183,-25018.960840,-1628.453072,-79367.493593
563.466713,-6069.688724,-25167.002028,-74617.701505
563.469243,21465.972318,-7105.977043,-72012.976812
563.471772,5329.482782,12731.542202,-75537.016103
563.474302,-23094.425390,5773.606348,-79673.931792
563.476831,8438.347739,-6661.853478,-75383.797003
563.479361,10214.842000,-7846.182985,-72625.853210
563.481890,8734.430116,9326.594869,-74464.482406
563.484420,-7550.100608,13767.830521,-78294.959896
563.486950,-5181.441594,15544.324782,-77835.302597
563.489479,7846.182985,-4441.235652,-76456.330700
563.492009,-11843.295072,-6513.812290,-75996.673402
563.494547,-7698.141797,-5181.441594,-76303.111601
563.497084,-11843.295072,8438.347739,-78601.398095
563.499622,-7550.100608,-6957.935855,-76303.111601
563.502160,11547.212695,-5181.441594,-74004.825107
563.504698,-12287.418637,10066.800811,-76303.111601
563.507236,-38194.626607,16876.695478,-81972.218286
563.509774,-20429.683999,17912.983796,-76762.768900
563.512311,10807.006753,15692.365970,-74004.825107
563.514849,4441.235652,29164.114115,-74004.825107
563.517387,-2664.741391,6365.771101,-76303.111601
563.519925,-5921.647536,-15100.201217,-72932.291410
563.522463,21762.054695,1924.535449,-72932.291410
563.525001,19985.560434,6661.853478,-72319.415011
563.527538,4145.153275,-9326.594869,-75690.235202
563.530076,-5921.647536,-1628.453072,-77222.426198
563.532614,-2664.741391,-21021.848753,-75537.016103
563.535152,10214.842000,-10362.883188,-71093.662214
563.537690,6957.935855,2516.700203,-73085.510509
563.540228,-4441.235652,6217.729913,-76762.768900
563.542765,-4589.276840,-14656.077652,-76762.768900
563.545303,19985.560434,-740.205942,-73391.948708
563.547841,5329.482782,21465.972318,-76915.987999
563.550379,-5773.606348,6513.812290,-76149.892501
563.552917,8882.471304,14804.118840,-74617.701505
563.555455,-28423.908173,22650.301825,-78907.836294
563.557992,-6809.894666,-3997.112087,-76762.768900
563.560530,-3108.864956,-23834.631332,-77069.207099
563.563068,-21021.848753,-14804.118840,-79673.931792
563.565606,-7254.018232,2072.576638,-76456.330700
563.568144,11843.295072,7254.018232,-73698.386908
563.570681,6513.812290,-21169.889941,-73698.386908
563.573219,-4293.194464,-10510.924376,-75230.577904
563.575757,-9474.636058,22946.384202,-77069.207099
563.578295,-5625.565159,26351.331535,-77069.207099
563.580833,6809.894666,8142.265362,-75230.577904
563.583371,4589.276840,-7698.141797,-74158.044206
563.585908,2960.823768,-9474.636058,-73851.606007
563.588446,6365.771101,25463.084405,-73545.167808
563.590984,-4145.153275,6513.812290,-76915.987999
563.593522,26943.496289,18505.148550,-72012.976812
563.596066,32717.102636,-30496.484810,-70327.566716
563.598610,41895.656317,-47521.221476,-67722.842023
563.601153,-888.247130,12287.418637,-76303.111601
563.603697,-58180.187041,35974.008781,-86568.791274
563.606241,-41007.409187,18209.066173,-83504.409282
563.608785,13323.706956,21317.931130,-70940.443115
563.611329,30496.484810,11251.130318,-69867.909418
563.613872,-11547.212695,2664.741391,-76456.330700
563.616416,-11547.212695,8438.347739,-77835.302597
563.618960,-15692.365970,-2960.823768,-78754.617194
563.621504,740.205942,1184.329507,-76456.330700
563.624048,4737.318029,-1480.411884,-74770.920605
563.626591,-10955.047942,-19097.313304,-75383.797003
563.629135,148.041188,-13915.871710,-75230.577904
563.631679,-3404.947333,4885.359217,-75843.454302
563.634223,-7550.100608,6957.935855,-77069.207099
563.636767,-740.205942,-5181.441594,-76303.111601
563.639310,3256.906145,-26499.372724,-75843.454302
563.641854,-12139.377449,-14211.954086,-75996.673402
563.644398,-8586.388927,-5033.400406,-76915.987999
563.646942,296.082377,-22354.219448,-76762.768900
563.649486,296.082377,-3849.070898,-74770.920605
563.652029,5921.647536,-14063.912898,-75690.235202
563.654573,4441.235652,-26351.331535,-75537.016103
563.657117,-14508.036463,-10510.924376,-77069.207099
563.659661,-2664.741391,1628.453072,-75996.673402
563.662205,9474.636058,11103.089130,-74924.139704
563.664748,5773.606348,-17912.983796,-75077.358804
563.667292,-740.205942,-5181.441594,-75537.016103
563.669836,-8734.430116,23390.507767,-76303.111601
563.672380,1184.329507,18357.107362,-76149.892501
563.674924,18061.024985,6365.771101,-74158.044206
563.677467,7994.224174,-11251.130318,-75077.358804
563.680011,-5625.565159,-4737.318029,-75077.358804
563.682555,4589.276840,15100.201217,-74464.482406
563.685099,4885.359217,-1776.494261,-74158.044206
563.687643,20281.642811,-10510.924376,-72319.415011
563.690186,17912.983796,-13175.665768,-74924.139704
563.692730,-4145.153275,-1776.494261,-76456.330700
563.695274,-17320.819043,-2368.659014,-76915.987999
563.697823,-1184.329507,-1776.494261,-75230.577904
563.700372,4589.276840,13323.706956,-74770.920605
563.702921,-14508.036463,21021.848753,-79367.493593
563.705470,-11695.253884,6069.688724,-78754.617194
563.708018,-13619.789333,-9770.718434,-76149.892501
563.710567,6513.812290,3108.864956,-72012.976812
563.713116,5181.441594,10066.800811,-73698.386908
563.715665,-9770.718434,1184.329507,-77835.302597
563.718214,-7994.224174,1036.288319,-77988.521696
563.720763,-2072.576638,-17468.860231,-75230.577904
563.723312,9474.636058,-8882.471304,-71093.662214
563.725860,6661.853478,6513.812290,-72932.291410
563.728409,-740.205942,4441.235652,-75843.454302
563.730958,592.164754,-9030.512492,-75996.673402
563.733507,7846.182985,-23834.631332,-75383.797003
563.736056,-10066.800811,-12435.459826,-75996.673402
563.738605,12435.459826,-17912.983796,-73391.948708
563.741154,5329.482782,24722.878463,-76149.892501
563.743703,4293.194464,15248.242405,-76762.768900
563.746251,1628.453072,2368.659014,-74158.044206
563.748800,29904.320057,-14656.077652,-71859.757712
563.751349,19541.436869,-8882.471304,-72472.634111
563.753898,-15100.201217,-10955.047942,-78754.617194
563.756447,-9030.512492,-2664.741391,-77069.207099
563.758996,28719.990550,-9474.636058,-71706.538613
563.761545,9770.718434,-17024.736666,-73545.167808
563.764093,-10214.842000,8438.347739,-77835.302597
563.766642,-13767.830521,17468.860231,-78754.617194
563.769191,-8882.471304,23242.466579,-77375.645298
563.771740,15988.448347,2960.823768,-75383.797003
563.774289,-2812.782580,-12731.542202,-76149.892501
563.776838,-10658.965565,14359.995275,-76915.987999
563.779387,-12139.377449,13767.830521,-76915.987999
563.781935,14804.118840,3849.070898,-74004.825107
563.784484,32124.937883,-26055.249158,-71400.100414
563.787033,14359.995275,-13619.789333,-73238.729609
563.789582,-31384.731941,21021.848753,-80440.027290
563.792131,-39971.120868,34345.555709,-81818.999186
563.794680,-3108.864956,14656.077652,-75077.358804
563.797229,29016.072926,10658.965565,-69714.690318
563.799782,30496.484810,11991.336260,-70174.347617
563.802335,-2664.741391,15692.365970,-75077.358804
563.804889,-25463.084405,296.082377,-77835.302597
563.807442,-148.041188,10807.006753,-73698.386908
563.809995,23390.507767,-4145.153275,-70787.224015
563.812549,7550.100608,-14063.912898,-74924.139704
563.815102,-5329.482782,-16432.571912,-76762.768900
563.817655,-8290.306550,-10362.883188,-75383.797003
563.820209,5921.647536,-148.041188,-72166.195912
563.822762,6661.853478,1332.370696,-73698.386908
563.825315,-3552.988522,-10807.006753,-75996.673402
563.827869,11547.212695,-21021.848753,-73545.167808
563.830422,20429.683999,-16432.571912,-70940.443115
563.832975,33457.308578,-8734.430116,-69867.909418
563.835529,31976.896694,-8586.388927,-71246.881314
563.838082,33309.267390,-30200.402434,-70174.347617
563.840635,34493.596897,-27979.784608,-73238.729609
563.843189,-2664.741391,-13767.830521,-78448.178995
563.845742,-14508.036463,-13915.871710,-78294.959896
563.848295,12435.459826,444.123565,-74158.044206
563.850849,10955.047942,-19097.313304,-74464.482406
563.853402,-10658.965565,-4589.276840,-77682.083497
563.855955,-23242.466579,18209.066173,-79673.931792
563.858509,-2220.617826,14656.077652,-76456.330700
563.861062,4293.194464,12731.542202,-75537.016103
563.863615,10955.047942,-9326.594869,-74311.263306
563.866169,-9178.553681,592.164754,-76915.987999
563.868722,5477.523971,14508.036463,-75077.358804
563.871275,9770.718434,2516.700203,-73545.167808
563.873829,11103.089130,12435.459826,-76303.111601
563.876382,-4737.318029,33161.226202,-78448.178995
563.878935,6365.771101,-18949.272115,-75383.797003
563.881489,26499.372724,-8142.265362,-70634.004916
563.884042,-10658.965565,29164.114115,-76456.330700
563.886595,-29904.320057,6513.812290,-80899.684589
563.889149,-13323.706956,-10214.842000,-76456.330700
563.891702,17616.901420,9622.677246,-74311.263306
563.894255,6661.853478,7550.100608,-73545.167808
563.896809,-4293.194464,12731.542202,-75077.358804
563.899362,-1184.329507,14359.995275,-74004.825107
563.901919,12287.418637,-10510.924376,-73085.510509
563.904476,5477.523971,-9474.636058,-74617.701505
563.907033,-13619.789333,-18801.230927,-77222.426198
563.909590,-6513.812290,-17172.777854,-75077.358804
563.912147,7402.059420,444.123565,-72779.072310
563.914705,2220.617826,13027.624579,-74158.044206
563.917262,-7254.018232,-1036.288319,-77069.207099
563.919819,-1036.288319,-21317.931130,-78754.617194
563.922376,-740.205942,-12879.583391,-76915.987999
563.924933,-13027.624579,11399.171507,-78141.740796
563.927490,-13323.706956,22354.219448,-77988.521696
563.930047,3701.029710,-5773.606348,-72932.291410
563.932604,30200.402434,-20577.725188,-71246.881314
563.935161,9326.594869,-7402.059420,-75383.797003
563.937718,-16728.654289,-4885.359217,-79367.493593
563.940275,-7254.018232,-7550.100608,-76762.768900
563.942832,17616.901420,-15988.448347,-71859.757712
563.945389,10066.800811,6957.935855,-73545.167808
563.947947,-19541.436869,19541.436869,-78601.398095
563.950504,-7698.141797,6513.812290,-77069.207099
563.953061,17764.942608,10658.965565,-73545.167808
563.955618,5181.441594,-8142.265362,-74311.263306
563.958175,1776.494261,5773.606348,-74311.263306
563.960732,6661.853478,7550.100608,-74924.139704
563.963289,4589.276840,-20429.683999,-76915.987999
563.965846,3256.906145,14952.160028,-74311.263306
563.968403,3108.864956,-1184.329507,-76303.111601
563.970960,9178.553681,-6661.853478,-74464.482406
563.973517,13471.748144,-9622.677246,-71400.100414
563.976074,7994.224174,1628.453072,-74924.139704
563.978631,4885.359217,5033.400406,-75230.577904
563.981188,4441.235652,6069.688724,-76609.549800
563.983746,8438.347739,8290.306550,-75537.016103
563.986303,2516.700203,-3849.070898,-75690.235202
563.988860,-3997.112087,-3404.947333,-74311.263306
563.991417,4145.153275,7698.141797,-74004.825107
563.993974,9326.594869,-7402.059420,-74464.482406
563.996531,-2960.823768,-7105.977043,-76762.768900
563.999088,-14952.160028,-13323.706956,-78141.740796
564.001645,-6513.812290,-11843.295072,-75690.235202
564.004171,7550.100608,-5329.482782,-72625.853210
564.006699,2072.576638,12287.418637,-74004.825107
564.009227,-13027.624579,296.082377,-76762.768900
564.011755,-7698.141797,-3108.864956,-78754.617194
564.014282,-19985.560434,21614.013506,-77222.426198
564.016810,-24574.837274,-4885.359217,-79061.055394
564.019338,-21762.054695,5329.482782,-77069.207099
564.021866,-23982.672521,11399.171507,-78448.178995
564.024394,-2072.576638,-3997.112087,-74464.482406
564.026921,5329.482782,-6809.894666,-74770.920605
564.029449,-3701.029710,-6513.812290,-76915.987999
564.031977,-7550.100608,3108.864956,-76915.987999
564.034505,5181.441594,-9622.677246,-74924.139704
564.037032,12139.377449,-6661.853478,-74464.482406
564.039560,-3701.029710,21021.848753,-76915.987999
564.042088,-13471.748144,15692.365970,-79214.274493
564.044616,4145.153275,13915.871710,-75690.235202
564.047143,4441.235652,-8734.430116,-75996.673402
564.049671,2664.741391,-8290.306550,-74770.920605
564.052199,2516.700203,12287.418637,-75230.577904
564.054727,3997.112087,10362.883188,-74924.139704
564.057254,17024.736666,7105.977043,-75383.797003
564.059782,19245.354492,-17616.901420,-73545.167808
564.062310,18505.148550,6365.771101,-73238.729609
564.064838,-11991.336260,18801.230927,-78601.398095
