#time,accel_x,accel_y,accel_z
402.308059,2220.617826,-9770.718434,-74770.920605
402.310545,-1480.411884,8438.347739,-73851.606007
402.313032,-23982.672521,27979.784608,-80286.808190
402.315519,-24722.878463,17024.736666,-79827.150892
402.318006,1036.288319,-6661.853478,-72472.634111
402.320492,33605.349767,-20429.683999,-68029.280222
402.322979,15692.365970,7550.100608,-71246.881314
402.325466,8290.306550,-2812.782580,-76762.768900
402.327953,-7846.182985,-3552.988522,-75537.016103
402.330439,14063.912898,-2072.576638,-69714.690318
402.332969,18061.024985,-7105.977043,-72932.291410
402.335498,-5921.647536,-3997.112087,-77528.864398
402.338028,-2812.782580,4737.318029,-74770.920605
402.340557,-2960.823768,15692.365970,-74770.920605
402.343087,12139.377449,-7698.141797,-73851.606007
402.345616,20725.766376,7105.977043,-70787.224015
402.348146,-6069.688724,12435.459826,-74924.139704
402.350675,-4885.359217,1184.329507,-75690.235202
402.353205,5033.400406,-10955.047942,-74924.139704
402.355734,13027.624579,592.164754,-72779.072310
402.358264,-148.041188,18209.066173,-76303.111601
402.360793,-8586.388927,10066.800811,-76456.330700
402.363323,19097.313304,-15396.283594,-71706.538613
402.365852,12879.583391,6809.894666,-71553.319513
402.368381,-4589.276840,27091.537477,-77988.521696
402.370911,11103.089130,-2960.823768,-74004.825107
402.373440,49741.839302,-26647.413912,-66956.746525
402.375970,20577.725188,-13767.830521,-70634.004916
402.378499,-22206.178260,38786.791361,-77835.302597
402.381029,-13915.871710,43228.027013,-76303.111601
402.383558,33901.432144,20577.725188,-80593.246390
402.386088,21465.972318,-11843.295072,-72625.853210
402.388617,22502.260637,-24722.878463,-68335.718422
402.391147,-7846.182985,17616.901420,-74770.920605
402.393676,-18505.148550,21317.931130,-77988.521696
402.396206,16728.654289,-14063.912898,-71553.319513
402.398735,23982.672521,-11843.295072,-69714.690318
402.401265,-7105.977043,17468.860231,-76762.768900
402.403794,-9326.594869,6661.853478,-77528.864398
402.406323,14656.077652,-12879.583391,-72779.072310
402.408853,5033.400406,2072.576638,-72012.976812
402.411382,-2368.659014,27091.537477,-74924.139704
402.413912,-15396.283594,15692.365970,-77069.207099
402.416441,296.082377,-7105.977043,-76149.892501
402.418971,15692.365970,-13175.665768,-72625.853210
402.421500,-5033.400406,13619.789333,-74464.482406
402.424030,5181.441594,18653.189738,-75077.358804
402.426559,-17764.942608,-8734.430116,-77682.083497
402.429089,2516.700203,-13471.748144,-73545.167808
402.431618,17468.860231,2220.617826,-72625.853210
402.434175,-15248.242405,-3404.947333,-78294.959896
402.436733,8586.388927,-1628.453072,-73391.948708
402.439290,6217.729913,740.205942,-72932.291410
402.441847,-6365.771101,-2072.576638,-76609.549800
402.444404,2368.659014,-11991.336260,-74311.263306
402.446962,10658.965565,1480.411884,-73698.386908
402.449519,-5625.565159,444.123565,-76609.549800
402.452076,1036.288319,2516.700203,-73085.510509
402.454633,27091.537477,-13323.706956,-71400.100414
402.457191,296.082377,-4885.359217,-76149.892501
402.459748,-16876.695478,3552.988522,-76915.987999
402.462305,2664.741391,0.000000,-72166.195912
402.464862,8734.430116,12879.583391,-75690.235202
402.467420,-296.082377,18505.148550,-76762.768900
402.469977,-12139.377449,9770.718434,-77069.207099
402.472534,4737.318029,-3997.112087,-74464.482406
402.475092,-740.205942,24278.754898,-73851.606007
402.477649,-23982.672521,19837.519246,-79061.055394
402.480206,-8290.306550,-3404.947333,-76609.549800
402.482763,-5329.482782,-8290.306550,-72932.291410
402.485321,-5329.482782,5181.441594,-77988.521696
402.487878,-3108.864956,-6809.894666,-77222.426198
402.490435,7550.100608,-4589.276840,-72625.853210
402.492992,6957.935855,3997.112087,-73085.510509
402.495550,-2516.700203,-1628.453072,-74924.139704
402.498107,23242.466579,-19245.354492,-71553.319513
402.500664,9918.759623,-12287.418637,-74924.139704
402.503221,-12287.418637,5033.400406,-75996.673402
402.505779,16284.530724,-296.082377,-70634.004916
402.508336,9918.759623,-10362.883188,-71706.538613
402.510893,5477.523971,-6217.729913,-76303.111601
402.513450,-19097.313304,10066.800811,-76609.549800
402.516008,9326.594869,-5033.400406,-74004.825107
402.518565,17320.819043,-14211.954086,-71859.757712
402.521122,1184.329507,2664.741391,-73238.729609
402.523679,-3997.112087,3849.070898,-76149.892501
402.526237,-8734.430116,1480.411884,-76149.892501
402.528794,10214.842000,11991.336260,-72319.415011
402.531351,1924.535449,9178.553681,-75843.454302
402.533908,-13767.830521,5625.565159,-77835.302597
402.536360,8734.430116,-7550.100608,-73085.510509
402.538807,-2516.700203,7698.141797,-72625.853210
402.541255,-4441.235652,14804.118840,-77069.207099
402.543702,-11547.212695,3552.988522,-78294.959896
402.546149,11103.089130,1332.370696,-71706.538613
402.548597,8882.471304,7994.224174,-72472.634111
402.551044,-2812.782580,2812.782580,-76609.549800
402.553491,-296.082377,-3256.906145,-74617.701505
402.555939,7105.977043,7846.182985,-72932.291410
402.558386,10214.842000,-4737.318029,-73085.510509
402.560833,7846.182985,10214.842000,-77222.426198
402.563281,-19097.313304,31976.896694,-77528.864398
402.565728,-18061.024985,46929.056723,-77988.521696
402.568175,8290.306550,-1924.535449,-74158.044206
402.570623,3701.029710,6809.894666,-74770.920605
402.573070,20133.601622,-15396.283594,-72319.415011
402.575518,-15692.365970,34049.473332,-76915.987999
402.577965,-38638.750172,21317.931130,-80286.808190
402.580412,-1628.453072,-6809.894666,-75230.577904
402.582860,27387.619854,-21021.848753,-68948.594820
402.585307,14952.160028,10066.800811,-71553.319513
402.587754,-13471.748144,11695.253884,-77988.521696
402.590202,2220.617826,-9326.594869,-74311.263306
402.592649,21021.848753,-14211.954086,-70174.347617
402.595096,2072.576638,12435.459826,-74617.701505
402.597544,-8290.306550,3404.947333,-77375.645298
402.599991,-11547.212695,2072.576638,-77528.864398
402.602438,11251.130318,3552.988522,-71400.100414
402.604886,1332.370696,8290.306550,-73851.606007
402.607333,-2220.617826,592.164754,-74770.920605
402.609780,6217.729913,-7994.224174,-75077.358804
402.612228,2812.782580,13915.871710,-73085.510509
402.614675,8734.430116,13323.706956,-74617.701505
402.617123,-19245.354492,-2812.782580,-78294.959896
402.619570,2516.700203,-12435.459826,-73085.510509
402.622017,14804.118840,-2516.700203,-72319.415011
402.624465,-14063.912898,-7402.059420,-77375.645298
402.626912,9918.759623,1924.535449,-72932.291410
402.629359,592.164754,4737.318029,-75383.797003
402.631807,-2664.741391,-296.082377,-75843.454302
402.634308,2516.700203,-6957.935855,-74311.263306
402.636809,1628.453072,-10658.965565,-74617.701505
402.639310,-7254.018232,444.123565,-75230.577904
402.641811,12731.542202,-3849.070898,-71859.757712
402.644312,2664.741391,6069.688724,-77069.207099
402.646813,-23834.631332,2072.576638,-79520.712692
402.649314,6957.935855,-13027.624579,-73238.729609
402.651815,11251.130318,5477.523971,-70787.224015
402.654316,740.205942,24574.837274,-77222.426198
402.656817,1184.329507,10807.006753,-75383.797003
402.659318,25759.166782,-30940.608376,-71400.100414
402.661819,27091.537477,-28275.866984,-68795.375720
402.664320,20577.725188,7846.182985,-69714.690318
402.666821,4145.153275,-13767.830521,-75077.358804
402.669322,29904.320057,-25167.002028,-70174.347617
402.671823,23982.672521,-25759.166782,-70021.128517
402.674324,-2960.823768,7698.141797,-76303.111601
402.676824,-5329.482782,3701.029710,-77222.426198
402.679325,9474.636058,-20725.766376,-71859.757712
402.681826,296.082377,1036.288319,-74004.825107
402.684327,-23834.631332,23686.590144,-79214.274493
402.686828,8142.265362,7254.018232,-75537.016103
402.689329,6513.812290,-15100.201217,-74770.920605
402.691830,-8438.347739,-8882.471304,-74924.139704
402.694331,-3997.112087,7254.018232,-73698.386908
402.696832,2812.782580,-3256.906145,-74924.139704
402.699333,-1628.453072,-1628.453072,-76609.549800
402.701834,-1036.288319,3404.947333,-76609.549800
402.704335,-7254.018232,1036.288319,-76149.892501
402.706836,4145.153275,8882.471304,-73085.510509
402.709337,15840.407159,5625.565159,-71553.319513
402.711838,9770.718434,-10658.965565,-75077.358804
402.714339,-7846.182985,1184.329507,-74770.920605
402.716840,11251.130318,15100.201217,-72012.976812
402.719341,5921.647536,6069.688724,-75383.797003
402.721842,-3552.988522,2516.700203,-75077.358804
402.724343,20725.766376,-14508.036463,-70634.004916
402.726844,21614.013506,13915.871710,-72166.195912
402.729345,-18357.107362,18653.189738,-79214.274493
402.731846,-1628.453072,-3256.906145,-73698.386908
402.734384,14211.954086,-444.123565,-70480.785816
402.736922,592.164754,8438.347739,-75077.358804
402.739460,-3552.988522,2664.741391,-76762.768900
402.741998,1480.411884,9030.512492,-73085.510509
402.744536,-888.247130,9326.594869,-74004.825107
402.747074,-4589.276840,-9178.553681,-71246.881314
402.749612,30940.608376,-18505.148550,-70021.128517
402.752150,-444.123565,24130.713709,-76762.768900
402.754688,-24130.713709,592.164754,-80133.589091
402.757225,-24130.713709,23538.548956,-79214.274493
402.759763,-1924.535449,-3108.864956,-74924.139704
402.762301,22502.260637,0.000000,-72319.415011
402.764839,-4885.359217,14804.118840,-71706.538613
402.767377,-2072.576638,16580.613101,-75077.358804
402.769915,6069.688724,-13323.706956,-74924.139704
402.772453,9030.512492,-4145.153275,-72625.853210
402.774991,1628.453072,12435.459826,-74770.920605
402.777529,-2812.782580,11843.295072,-75077.358804
402.780067,11547.212695,-11251.130318,-73238.729609
402.782605,6809.894666,14211.954086,-72319.415011
402.785142,4145.153275,22058.137072,-73698.386908
402.787680,444.123565,-6069.688724,-76149.892501
402.790218,9326.594869,-8290.306550,-73545.167808
402.792756,3108.864956,4145.153275,-73085.510509
402.795294,1036.288319,22650.301825,-74924.139704
402.797832,-3108.864956,1628.453072,-76915.987999
402.800370,7994.224174,-15248.242405,-72779.072310
402.802908,16136.489536,-1036.288319,-71400.100414
402.805446,-6957.935855,-3404.947333,-78448.178995
402.807984,-3256.906145,-4293.194464,-74924.139704
402.810522,13175.665768,4145.153275,-71859.757712
402.813060,-7254.018232,6809.894666,-75537.016103
402.815597,-6513.812290,2960.823768,-76915.987999
402.818135,6217.729913,-10510.924376,-74004.825107
402.820673,6513.812290,-9326.594869,-73391.948708
402.823211,1480.411884,10658.965565,-73851.606007
402.825749,1628.453072,6069.688724,-75843.454302
402.828287,-6365.771101,-7994.224174,-76456.330700
402.830825,17320.819043,-16284.530724,-71706.538613
402.833363,-1628.453072,2220.617826,-76762.768900
402.835926,-14804.118840,6809.894666,-76609.549800
402.838489,11695.253884,10214.842000,-72319.415011
402.841053,23538.548956,-18653.189738,-72012.976812
402.843616,23538.548956,-10362.883188,-71246.881314
402.846179,9030.512492,-3404.947333,-73545.167808
402.848742,2664.741391,-20873.807564,-74158.044206
402.851306,-4589.276840,-19985.560434,-75230.577904
402.853869,-2072.576638,4441.235652,-74004.825107
402.856432,-9326.594869,7402.059420,-76456.330700
402.858995,1628.453072,9030.512492,-75383.797003
402.861559,8734.430116,-6957.935855,-74158.044206
402.864122,16284.530724,-7550.100608,-73545.167808
402.866685,-11103.089130,3256.906145,-75996.673402
402.869248,1776.494261,7846.182985,-73085.510509
402.871812,14656.077652,-12287.418637,-74464.482406
402.874375,-7402.059420,1332.370696,-76762.768900
402.876938,-7698.141797,7994.224174,-75383.797003
402.879501,1924.535449,-5033.400406,-74158.044206
402.882065,-1036.288319,2072.576638,-75537.016103
402.884628,-1776.494261,1036.288319,-76303.111601
402.887191,-5181.441594,-2220.617826,-76456.330700
402.889754,888.247130,10955.047942,-73085.510509
402.892318,13027.624579,4885.359217,-72779.072310
402.894881,7994.224174,-10658.965565,-75537.016103
402.897444,-7846.182985,5329.482782,-74924.139704
402.900007,8882.471304,12583.501014,-73391.948708
402.902571,2960.823768,2664.741391,-75690.235202
402.905134,4441.235652,-18061.024985,-73851.606007
402.907697,6957.935855,9770.718434,-72779.072310
402.910261,12287.418637,13619.789333,-74004.825107
402.912824,-15396.283594,11991.336260,-79367.493593
402.915387,4441.235652,-888.247130,-73085.510509
402.917950,11251.130318,3701.029710,-71093.662214
402.920514,-2960.823768,11399.171507,-75537.016103
402.923077,-8142.265362,9918.759623,-76915.987999
402.925640,4589.276840,-6957.935855,-74617.701505
402.928203,16876.695478,6957.935855,-72472.634111
402.930767,13619.789333,888.247130,-72166.195912
402.933330,28719.990550,-17320.819043,-69408.252119
402.935893,11695.253884,-2368.659014,-71859.757712
402.938382,-8882.471304,6661.853478,-78448.178995
402.940871,7698.141797,-5921.647536,-75690.235202
402.943360,31976.896694,-10066.800811,-70787.224015
402.945849,19097.313304,4293.194464,-67876.061123
402.948338,-5181.441594,13915.871710,-75690.235202
402.950827,-6365.771101,2220.617826,-76915.987999
402.953316,5921.647536,-5773.606348,-74004.825107
402.955805,5477.523971,7254.018232,-73545.167808
402.958294,-7698.141797,11547.212695,-77375.645298
402.960783,-7254.018232,888.247130,-76456.330700
402.963272,-444.123565,7105.977043,-72012.976812
402.965761,10214.842000,21762.054695,-72012.976812
402.968250,2516.700203,-3256.906145,-76456.330700
402.970739,2516.700203,-6513.812290,-75230.577904
402.973228,4589.276840,-6957.935855,-74158.044206
402.975717,5033.400406,17764.942608,-72166.195912
402.978206,2368.659014,16580.613101,-75537.016103
402.980694,-16876.695478,-14952.160028,-77835.302597
402.983183,16728.654289,-13619.789333,-70174.347617
402.985672,10066.800811,444.123565,-75077.358804
402.988161,-16876.695478,-4293.194464,-77835.302597
402.990650,13471.748144,-592.164754,-71706.538613
402.993139,-2960.823768,6069.688724,-74311.263306
402.995628,-6365.771101,-1924.535449,-75843.454302
402.998117,5625.565159,-8438.347739,-73851.606007
403.000606,2220.617826,-888.247130,-74924.139704
403.003095,2368.659014,11695.253884,-74158.044206
403.005584,1480.411884,6957.935855,-75843.454302
403.008073,-7550.100608,-7550.100608,-76915.987999
403.010562,2516.700203,-7105.977043,-74004.825107
403.013051,-10510.924376,13323.706956,-76762.768900
403.015540,-6957.935855,-12583.501014,-75230.577904
403.018029,1332.370696,-15988.448347,-73085.510509
403.020518,-19837.519246,18357.107362,-78448.178995
403.023007,-24870.919651,20281.642811,-80746.465489
403.025496,444.123565,-5773.606348,-75077.358804
403.027985,5477.523971,6513.812290,-71400.100414
403.030474,-21465.972318,16432.571912,-78141.740796
403.032963,-22502.260637,4589.276840,-81359.341888
403.035452,-13471.748144,-3404.947333,-79214.274493
403.037978,9030.512492,-9178.553681,-74004.825107
403.040504,-10807.006753,15988.448347,-76609.549800
403.043030,-5921.647536,4145.153275,-77222.426198
403.045556,2072.576638,-7254.018232,-74158.044206
403.048082,3108.864956,5773.606348,-72166.195912
403.050607,-148.041188,-1776.494261,-75690.235202
403.053133,1480.411884,-5921.647536,-75077.358804
403.055659,10807.006753,-14656.077652,-72625.853210
403.058185,11103.089130,-1480.411884,-73238.729609
403.060711,-3256.906145,12583.501014,-75843.454302
403.063237,-15396.283594,2220.617826,-76762.768900
403.065763,-12435.459826,1776.494261,-77988.521696
403.068289,-1036.288319,20281.642811,-73238.729609
403.070815,25907.207970,13323.706956,-72932.291410
403.073341,-5921.647536,3256.906145,-77835.302597
403.075867,-592.164754,-2220.617826,-73085.510509
403.078393,15544.324782,11547.212695,-70480.785816
403.080919,-2812.782580,4885.359217,-74617.701505
403.083445,17764.942608,-9030.512492,-72319.415011
403.085971,22058.137072,7105.977043,-72472.634111
403.088497,-12879.583391,10214.842000,-78448.178995
403.091023,1184.329507,-1332.370696,-73545.167808
403.093548,15544.324782,1480.411884,-70787.224015
403.096074,12435.459826,1332.370696,-73238.729609
403.098600,-3849.070898,1332.370696,-78141.740796
403.101126,-3701.029710,-10362.883188,-73851.606007
403.103652,9918.759623,-19837.519246,-71553.319513
403.106178,13323.706956,-8290.306550,-71706.538613
403.108704,-10362.883188,9178.553681,-76609.549800
403.111230,-19837.519246,23242.466579,-79980.369991
403.113756,-888.247130,-14063.912898,-74770.920605
403.116282,21021.848753,-11399.171507,-69255.033019
403.118757,-7254.018232,19985.560434,-79673.931792
403.121231,-25611.125593,28719.990550,-81052.903688
403.123706,-444.123565,7402.059420,-73698.386908
403.126180,8142.265362,-6809.894666,-73851.606007
403.128655,3997.112087,10214.842000,-74004.825107
403.131130,-10214.842000,15396.283594,-77835.302597
403.133604,3849.070898,15988.448347,-74770.920605
403.136079,3552.988522,-6069.688724,-74770.920605
403.138554,0.000000,740.205942,-75077.358804
403.141028,-10807.006753,13619.789333,-75537.016103
403.143503,-3404.947333,9770.718434,-75843.454302
403.145977,7254.018232,-6957.935855,-75537.016103
403.148452,-3701.029710,6809.894666,-73545.167808
403.150927,11695.253884,16580.613101,-72472.634111
403.153401,-16876.695478,-6957.935855,-78601.398095
403.155876,2072.576638,-17764.942608,-74464.482406
403.158351,21317.931130,-5033.400406,-70634.004916
403.160825,1776.494261,7254.018232,-75077.358804
403.163300,-3849.070898,0.000000,-77069.207099
403.165774,6217.729913,-592.164754,-72166.195912
403.168249,-2368.659014,-148.041188,-75383.797003
403.170724,444.123565,-7402.059420,-75537.016103
403.173198,2220.617826,-10807.006753,-74464.482406
403.175673,3701.029710,11695.253884,-73545.167808
403.178148,4885.359217,12287.418637,-74924.139704
403.180622,-6069.688724,-5773.606348,-76609.549800
403.183097,-3404.947333,4441.235652,-72472.634111
403.185571,11695.253884,8142.265362,-74464.482406
403.188046,-1480.411884,-4737.318029,-73698.386908
403.190521,-16432.571912,12435.459826,-78754.617194
403.192995,-21910.095883,15100.201217,-79673.931792
403.195470,-5181.441594,-296.082377,-75230.577904
403.197945,3701.029710,4145.153275,-71553.319513
403.200419,-17764.942608,10955.047942,-77988.521696
403.202894,-19689.478057,-10955.047942,-81052.903688
403.205368,-10510.924376,-10066.800811,-74924.139704
403.207843,2220.617826,2812.782580,-72625.853210
403.210318,-148.041188,7254.018232,-75383.797003
403.212792,5181.441594,1776.494261,-75537.016103
403.215267,4293.194464,-12731.542202,-75996.673402
403.217782,-6809.894666,-3108.864956,-76915.987999
403.220297,-4885.359217,2072.576638,-73851.606007
403.222812,11251.130318,3108.864956,-73391.948708
403.225328,-14656.077652,12583.501014,-78448.178995
403.227843,-2072.576638,-9178.553681,-77528.864398
403.230358,7254.018232,-7550.100608,-72472.634111
403.232873,3552.988522,1924.535449,-72472.634111
403.235388,3701.029710,-888.247130,-75230.577904
403.237903,-8290.306550,2960.823768,-75843.454302
403.240419,9178.553681,13915.871710,-72932.291410
403.242934,2664.741391,3849.070898,-75843.454302
403.245449,-13323.706956,4441.235652,-77069.207099
403.247964,7550.100608,-11695.253884,-74924.139704
403.250479,-1628.453072,13915.871710,-74617.701505
403.252994,-17024.736666,8734.430116,-78141.740796
403.255510,6661.853478,4589.276840,-73085.510509
403.258025,11843.295072,6809.894666,-72779.072310
403.260540,-7254.018232,9770.718434,-76609.549800
403.263055,-3108.864956,1036.288319,-74311.263306
403.265570,8734.430116,11547.212695,-71553.319513
403.268085,-592.164754,-7402.059420,-76915.987999
403.270600,-6661.853478,-18801.230927,-75690.235202
403.273116,-5329.482782,8438.347739,-74770.920605
403.275631,-23094.425390,17320.819043,-78294.959896
403.278146,-13323.706956,13471.748144,-77988.521696
403.280661,-3552.988522,-17764.942608,-74617.701505
403.283176,6513.812290,-3997.112087,-72012.976812
403.285691,-11991.336260,23538.548956,-79520.712692
403.288207,-16876.695478,27091.537477,-80133.589091
403.290722,2960.823768,6069.688724,-74004.825107
403.293237,7698.141797,6513.812290,-71093.662214
403.295752,148.041188,12435.459826,-75383.797003
403.298267,-4293.194464,-1332.370696,-77375.645298
403.300782,3256.906145,4441.235652,-72779.072310
403.303298,16284.530724,14211.954086,-70634.004916
403.305813,10066.800811,-2812.782580,-75996.673402
403.308328,-740.205942,-6069.688724,-74924.139704
403.310843,-296.082377,-5033.400406,-74617.701505
403.313358,7105.977043,21021.848753,-73851.606007
403.315873,-3997.112087,9770.718434,-76762.768900
403.318417,4737.318029,-10362.883188,-73085.510509
403.320961,22206.178260,-12435.459826,-69408.252119
403.323505,-4737.318029,-3701.029710,-77682.083497
403.326049,-7402.059420,148.041188,-75843.454302
403.328593,12583.501014,7402.059420,-73238.729609
403.331137,-3552.988522,1776.494261,-75996.673402
403.333681,4885.359217,-3404.947333,-73698.386908
403.336225,4441.235652,-6217.729913,-73851.606007
403.338769,-3404.947333,-3997.112087,-76303.111601
403.341313,-1628.453072,-11103.089130,-76609.549800
403.343857,-148.041188,-1776.494261,-74004.825107
403.346401,10955.047942,10807.006753,-72012.976812
403.348945,1480.411884,740.205942,-74770.920605
403.351489,-2664.741391,-18209.066173,-76915.987999
403.354033,11843.295072,-22650.301825,-71706.538613
403.356577,-13767.830521,17172.777854,-78448.178995
403.359121,-30496.484810,21762.054695,-81359.341888
403.361665,-4885.359217,7550.100608,-74311.263306
403.364209,10214.842000,11695.253884,-71400.100414
403.366753,25907.207970,-14656.077652,-73698.386908
403.369297,5625.565159,-17172.777854,-73238.729609
403.371841,-12879.583391,-296.082377,-75537.016103
403.374385,-6809.894666,15100.201217,-74158.044206
403.376929,16728.654289,-4293.194464,-74004.825107
403.379473,7105.977043,-15988.448347,-74311.263306
403.382017,-1628.453072,2516.700203,-72472.634111
403.384561,3404.947333,740.205942,-74770.920605
403.387105,2960.823768,-8142.265362,-76456.330700
403.389649,7698.141797,-21021.848753,-74004.825107
403.392193,-1036.288319,14211.954086,-74311.263306
403.394737,-5477.523971,12435.459826,-76456.330700
403.397281,-2220.617826,-12583.501014,-76149.892501
403.399825,3997.112087,1776.494261,-72625.853210
403.402369,12583.501014,10362.883188,-73545.167808
403.404913,19689.478057,1776.494261,-74464.482406
403.407457,-1924.535449,3404.947333,-75077.358804
403.410001,5329.482782,7105.977043,-72472.634111
403.412545,4737.318029,5477.523971,-72779.072310
403.415089,6513.812290,-15544.324782,-73085.510509
403.417633,10510.924376,-2960.823768,-74311.263306
403.420199,-13027.624579,11251.130318,-78141.740796
403.422764,-7254.018232,8438.347739,-75690.235202
403.425330,18653.189738,5329.482782,-70787.224015
403.427896,-444.123565,5773.606348,-74924.139704
403.430462,-13323.706956,2368.659014,-76762.768900
403.433028,8882.471304,-2368.659014,-74617.701505
403.435594,12879.583391,-2220.617826,-72472.634111
403.438159,20873.807564,-10510.924376,-72625.853210
403.440725,-4885.359217,29312.155303,-75690.235202
403.443291,-23982.672521,-592.164754,-78294.959896
403.445857,17468.860231,10066.800811,-71400.100414
403.448423,2960.823768,22946.384202,-74617.701505
403.450988,-7105.977043,22946.384202,-76915.987999
403.453554,9474.636058,-5921.647536,-73238.729609
403.456120,11843.295072,-2368.659014,-71093.662214
403.458686,-8586.388927,9178.553681,-76303.111601
403.461252,-3701.029710,2960.823768,-75383.797003
403.463817,18357.107362,-1184.329507,-72779.072310
403.466383,8586.388927,-2516.700203,-74311.263306
403.468949,-5773.606348,9918.759623,-75230.577904
403.471515,-10066.800811,15544.324782,-75996.673402
403.474081,8438.347739,592.164754,-72779.072310
403.476647,9474.636058,-6957.935855,-73851.606007
403.479212,-1184.329507,19097.313304,-73698.386908
403.481778,592.164754,18653.189738,-76456.330700
403.484344,-7550.100608,-15248.242405,-76762.768900
403.486910,21465.972318,-18209.066173,-69714.690318
403.489476,3997.112087,-592.164754,-73698.386908
403.492041,-16284.530724,-1036.288319,-76915.987999
403.494607,17172.777854,3256.906145,-71246.881314
403.497173,-740.205942,5625.565159,-75843.454302
403.499739,-7105.977043,-2812.782580,-76149.892501
403.502305,2664.741391,-8142.265362,-74311.263306
403.504870,4441.235652,-3701.029710,-74004.825107
403.507436,-3849.070898,-5033.400406,-76915.987999
403.510002,-5477.523971,-2516.700203,-74464.482406
403.512568,8586.388927,2516.700203,-72779.072310
403.515134,1480.411884,11843.295072,-76609.549800
403.517700,-11399.171507,-7402.059420,-77069.207099
403.520265,-7402.059420,23686.590144,-73085.510509
403.522782,4885.359217,5921.647536,-76456.330700
403.525299,-4293.194464,-20429.683999,-78141.740796
403.527816,5033.400406,-6365.771101,-69867.909418
403.530333,20577.725188,-12435.459826,-67109.965625
403.532850,6513.812290,11547.212695,-76149.892501
403.535366,-19837.519246,7402.059420,-81665.780087
403.537883,-2220.617826,-5625.565159,-75077.358804
403.540400,15100.201217,7105.977043,-71553.319513
403.542917,-3108.864956,4885.359217,-76915.987999
403.545434,-11843.295072,2812.782580,-77069.207099
403.547951,10510.924376,-5625.565159,-71400.100414
403.550468,10066.800811,148.041188,-73085.510509
403.552985,5773.606348,-16284.530724,-75537.016103
403.555502,9770.718434,-6365.771101,-73851.606007
403.558019,740.205942,6809.894666,-74311.263306
403.560535,-10066.800811,592.164754,-75230.577904
403.563052,-5773.606348,1924.535449,-76303.111601
403.565569,6513.812290,15692.365970,-73545.167808
403.568086,20725.766376,6217.729913,-74004.825107
403.570603,-8586.388927,4737.318029,-76609.549800
403.573120,6217.729913,2960.823768,-70940.443115
403.575637,14211.954086,3108.864956,-71859.757712
403.578154,-1924.535449,-10807.006753,-75690.235202
403.580671,13471.748144,-3256.906145,-74004.825107
403.583188,-3997.112087,9030.512492,-77835.302597
403.585704,-10510.924376,13323.706956,-76609.549800
403.588221,16876.695478,8882.471304,-69561.471218
403.590738,14211.954086,-1776.494261,-70634.004916
403.593255,-888.247130,5329.482782,-77528.864398
403.595772,-7254.018232,-12287.418637,-75230.577904
403.598289,5921.647536,-26351.331535,-74158.044206
403.600806,3849.070898,7994.224174,-73851.606007
403.603323,-28571.949361,25018.960840,-79367.493593
403.605840,-16432.571912,19097.313304,-77835.302597
403.608356,-10066.800811,35085.761651,-75996.673402
403.610873,-14952.160028,18505.148550,-77375.645298
403.613390,3552.988522,-740.205942,-76303.111601
403.615907,12879.583391,-1332.370696,-71859.757712
403.618424,3849.070898,7105.977043,-74464.482406
403.620941,1628.453072,1332.370696,-74464.482406
403.623485,8734.430116,11991.336260,-74004.825107
403.626030,2516.700203,-444.123565,-75843.454302
403.628574,-8290.306550,14508.036463,-77069.207099
403.631119,-6069.688724,11991.336260,-74924.139704
403.633663,12435.459826,3108.864956,-73238.729609
403.636207,2368.659014,-444.123565,-74004.825107
403.638752,-444.123565,16728.654289,-74158.044206
403.641296,3701.029710,14359.995275,-74924.139704
403.643841,-2072.576638,-17024.736666,-76303.111601
403.646385,21169.889941,-18209.066173,-71093.662214
403.648929,2072.576638,-5477.523971,-75077.358804
403.651474,-14952.160028,-148.041188,-76303.111601
403.654018,4737.318029,6809.894666,-72625.853210
403.656563,6069.688724,3997.112087,-74158.044206
403.659107,148.041188,-8438.347739,-75690.235202
403.661651,4293.194464,-9030.512492,-74464.482406
403.664196,2072.576638,-1184.329507,-74311.263306
403.666740,-2960.823768,-4885.359217,-75690.235202
403.669285,5773.606348,9622.677246,-72932.291410
403.671829,3256.906145,-444.123565,-76303.111601
403.674373,-2516.700203,10362.883188,-76915.987999
403.676918,7846.182985,21021.848753,-72779.072310
403.679462,6513.812290,6365.771101,-73698.386908
403.682007,18209.066173,-9770.718434,-72932.291410
403.684551,8438.347739,-28719.990550,-74464.482406
403.687095,8586.388927,-31384.731941,-72319.415011
403.689640,-18949.272115,22206.178260,-76303.111601
403.692184,-25018.960840,14063.912898,-79980.369991
403.694729,10510.924376,-10214.842000,-73238.729609
403.697273,22650.301825,-3552.988522,-70940.443115
403.699817,-16136.489536,7105.977043,-79214.274493
403.702362,-12583.501014,1332.370696,-75843.454302
403.704906,25018.960840,-13323.706956,-69867.909418
403.707451,6069.688724,-3701.029710,-74464.482406
403.709995,-8882.471304,-7254.018232,-77222.426198
403.712539,-7105.977043,10066.800811,-75843.454302
403.715084,3108.864956,2072.576638,-75537.016103
403.717628,-8290.306550,-4145.153275,-76915.987999
403.720173,4589.276840,2368.659014,-72932.291410
403.722717,13915.871710,6809.894666,-72472.634111
403.725283,4293.194464,-2812.782580,-76609.549800
403.727849,-6217.729913,4441.235652,-75690.235202
403.730415,16136.489536,10362.883188,-70940.443115
403.732980,-3849.070898,5921.647536,-75690.235202
403.735546,-2368.659014,-11695.253884,-75383.797003
403.738112,-2664.741391,11695.253884,-75077.358804
403.740678,-17912.983796,15544.324782,-78448.178995
403.743244,12731.542202,10807.006753,-72166.195912
403.745810,21169.889941,5773.606348,-70634.004916
403.748375,-2812.782580,7550.100608,-75077.358804
403.750941,-9918.759623,9770.718434,-75077.358804
403.753507,6069.688724,10362.883188,-74617.701505
403.756073,-2072.576638,24870.919651,-76303.111601
403.758639,-12879.583391,13323.706956,-78294.959896
403.761205,7254.018232,-10362.883188,-72625.853210
403.763771,7846.182985,3552.988522,-70174.347617
403.766336,6809.894666,14063.912898,-73391.948708
403.768902,24426.796086,-7402.059420,-73545.167808
403.771468,15248.242405,-1332.370696,-72932.291410
403.774034,4737.318029,4885.359217,-75383.797003
403.776600,740.205942,-2664.741391,-75537.016103
403.779166,2812.782580,-4885.359217,-74617.701505
403.781732,-6957.935855,2368.659014,-73391.948708
403.784297,12287.418637,17024.736666,-71093.662214
403.786863,22798.343014,-2812.782580,-74158.044206
403.789429,-2072.576638,-9030.512492,-76609.549800
403.791995,-12435.459826,7846.182985,-74924.139704
403.794561,9622.677246,9030.512492,-72779.072310
403.797127,-3552.988522,-3552.988522,-75537.016103
403.799693,18505.148550,-1480.411884,-72012.976812
403.802258,-4885.359217,2516.700203,-77528.864398
403.804824,-21465.972318,-8734.430116,-79061.055394
403.807390,19689.478057,-6217.729913,-70787.224015
403.809956,15100.201217,4441.235652,-71553.319513
403.812522,-1480.411884,-1776.494261,-75690.235202
403.815088,4145.153275,-3108.864956,-74311.263306
403.817654,444.123565,-444.123565,-76303.111601
403.820219,-2960.823768,-5033.400406,-75996.673402
403.822785,6217.729913,-7254.018232,-72472.634111
403.825351,6217.729913,-6217.729913,-73085.510509
403.827875,-8438.347739,11843.295072,-73851.606007
403.830398,6513.812290,-10510.924376,-74770.920605
403.832922,0.000000,-29608.237680,-75690.235202
403.835445,-13619.789333,-11103.089130,-77222.426198
403.837969,-30052.361245,30200.402434,-78448.178995
403.840492,-20577.725188,31976.896694,-79367.493593
403.843016,-10066.800811,16876.695478,-78294.959896
403.845539,38342.667796,-47521.221476,-70787.224015
403.848062,24426.796086,-11399.171507,-68182.499322
403.850586,-17468.860231,12139.377449,-79061.055394
403.853109,-10214.842000,-4885.359217,-76303.111601
403.855633,27831.743419,-16580.613101,-69255.033019
403.858156,2664.741391,5033.400406,-74770.920605
403.860680,-20577.725188,15840.407159,-78294.959896
403.863203,5625.565159,-2516.700203,-74004.825107
403.865727,9326.594869,-11843.295072,-72932.291410
403.868250,7402.059420,-8142.265362,-73391.948708
403.870774,1036.288319,2368.659014,-72012.976812
403.873297,-5329.482782,8142.265362,-75996.673402
403.875821,-9326.594869,4589.276840,-77375.645298
403.878344,1924.535449,13027.624579,-73391.948708
403.880868,25463.084405,5921.647536,-73238.729609
403.883391,-10658.965565,7994.224174,-77528.864398
403.885915,-1332.370696,6661.853478,-73391.948708
403.888438,17616.901420,6661.853478,-71093.662214
403.890962,5477.523971,-9474.636058,-73391.948708
403.893485,11843.295072,-7402.059420,-74158.044206
403.896009,-13323.706956,4589.276840,-78448.178995
403.898532,-6069.688724,14211.954086,-75230.577904
403.901056,24278.754898,1036.288319,-70787.224015
403.903579,15100.201217,5625.565159,-71400.100414
403.906103,-9030.512492,-8882.471304,-77528.864398
403.908626,-5921.647536,-22502.260637,-74311.263306
403.911150,-1480.411884,13619.789333,-73851.606007
403.913673,-16728.654289,21614.013506,-79061.055394
403.916197,-4293.194464,29460.196492,-76149.892501
403.918720,6513.812290,18061.024985,-73545.167808
403.921243,22798.343014,-8142.265362,-73085.510509
403.923767,15396.283594,-5329.482782,-71400.100414
403.926290,-3552.988522,9178.553681,-75537.016103
403.928839,-2664.741391,888.247130,-76609.549800
403.931388,6217.729913,-7994.224174,-73545.167808
403.933937,-592.164754,-3404.947333,-73698.386908
403.936486,1480.411884,14211.954086,-72932.291410
403.939035,18209.066173,4589.276840,-72319.415011
403.941584,12287.418637,-4293.194464,-75230.577904
403.944132,-10807.006753,740.205942,-76609.549800
403.946681,7994.224174,11991.336260,-72779.072310
403.949230,-2516.700203,4589.276840,-74311.263306
403.951779,16876.695478,-7994.224174,-71246.881314
403.954328,7105.977043,-8142.265362,-75077.358804
403.956877,-20281.642811,-296.082377,-79520.712692
403.959426,7402.059420,-1776.494261,-73545.167808
403.961975,10807.006753,-8438.347739,-72625.853210
403.964523,3404.947333,1628.453072,-74004.825107
403.967072,5625.565159,-2960.823768,-73391.948708
403.969621,-6217.729913,-2072.576638,-76762.768900
403.972170,-3849.070898,-7994.224174,-76609.549800
403.974719,5329.482782,-7105.977043,-73851.606007
403.977268,-148.041188,740.205942,-74464.482406
403.979817,-1776.494261,15248.242405,-75690.235202
403.982365,3108.864956,-19245.354492,-73085.510509
403.984914,-2960.823768,-29904.320057,-75537.016103
403.987463,-2960.823768,-2368.659014,-73851.606007
403.990012,-10066.800811,17616.901420,-76149.892501
403.992561,-888.247130,4885.359217,-77222.426198
403.995110,1332.370696,-15692.365970,-72932.291410
403.997659,10955.047942,-1480.411884,-73085.510509
404.000207,-7254.018232,5921.647536,-79214.274493
404.002756,-6217.729913,-1628.453072,-76149.892501
404.005305,13323.706956,-5773.606348,-71246.881314
404.007854,-5329.482782,8290.306550,-76149.892501
404.010403,-8586.388927,2960.823768,-78601.398095
404.012952,10066.800811,-9622.677246,-73238.729609
404.015501,9474.636058,-15100.201217,-72779.072310
404.018050,-3552.988522,7402.059420,-75537.016103
404.020598,-9474.636058,3404.947333,-77988.521696
404.023147,-7105.977043,-9178.553681,-76456.330700
404.025696,9178.553681,6365.771101,-71553.319513
404.028245,14656.077652,11843.295072,-70940.443115
404.030813,11991.336260,-1480.411884,-74311.263306
404.033382,-11695.253884,5921.647536,-76762.768900
404.035950,6661.853478,11695.253884,-72472.634111
404.038519,8882.471304,2220.617826,-73698.386908
404.041087,2960.823768,-9326.594869,-75996.673402
404.043656,-9622.677246,7698.141797,-76456.330700
404.046224,-15544.324782,17912.983796,-75537.016103
404.048793,23982.672521,12435.459826,-72319.415011
404.051361,-1184.329507,4293.194464,-77069.207099
404.053930,-20725.766376,1184.329507,-77222.426198
404.056498,10658.965565,19985.560434,-70174.347617
404.059067,-1924.535449,17172.777854,-73851.606007
404.061635,-17172.777854,39082.873738,-78907.836294
404.064204,-5181.441594,740.205942,-77528.864398
404.066772,17320.819043,-40267.203245,-70021.128517
404.069341,1628.453072,1332.370696,-70327.566716
404.071909,-32717.102636,45300.603650,-78448.178995
404.074477,-7402.059420,8882.471304,-78601.398095
404.077046,18061.024985,-15692.365970,-72779.072310
404.079614,2664.741391,12139.377449,-74158.044206
404.082183,-2812.782580,29904.320057,-75077.358804
404.084751,9030.512492,-7105.977043,-74617.701505
404.087320,-592.164754,-3108.864956,-74004.825107
404.089888,-5329.482782,9030.512492,-76149.892501
404.092457,740.205942,14211.954086,-74158.044206
404.095025,7402.059420,4441.235652,-74924.139704
404.097594,4145.153275,7994.224174,-74004.825107
404.100162,-740.205942,14508.036463,-75383.797003
404.102731,-14952.160028,-7698.141797,-76456.330700
404.105299,26499.372724,-18209.066173,-69867.909418
404.107868,15544.324782,-8438.347739,-74311.263306
404.110436,-19837.519246,5773.606348,-77835.302597
404.113005,8586.388927,5625.565159,-72779.072310
404.115573,2072.576638,-148.041188,-73391.948708
404.118142,2516.700203,-1924.535449,-73851.606007
404.120710,6069.688724,-7105.977043,-74004.825107
404.123279,1332.370696,-3256.906145,-75996.673402
404.125847,0.000000,-888.247130,-75690.235202
404.128415,9770.718434,-6513.812290,-73085.510509
404.130984,7402.059420,24426.796086,-73238.729609
404.133566,2516.700203,22946.384202,-76303.111601
404.136148,-7105.977043,-1184.329507,-77069.207099
404.138730,17172.777854,-13323.706956,-71400.100414
404.141312,16432.571912,-31680.814318,-71553.319513
404.143894,-6513.812290,-7994.224174,-74770.920605
404.146476,-26647.413912,27239.578666,-76609.549800
404.149058,2516.700203,296.082377,-75537.016103
404.151640,7846.182985,-23982.672521,-75230.577904
404.154222,7994.224174,-11843.295072,-73698.386908
404.156804,888.247130,10214.842000,-73391.948708
404.159386,-11103.089130,11251.130318,-77682.083497
404.161968,5329.482782,-6513.812290,-75690.235202
404.164550,17320.819043,-24278.754898,-71246.881314
404.167132,8290.306550,296.082377,-72932.291410
404.169714,-8290.306550,7994.224174,-76609.549800
404.172296,-7254.018232,-8586.388927,-76915.987999
404.174878,12731.542202,-1480.411884,-71553.319513
404.177460,17024.736666,6957.935855,-72012.976812
404.180042,-6957.935855,2220.617826,-77528.864398
404.182624,-16580.613101,8290.306550,-77222.426198
404.185206,5477.523971,7994.224174,-72166.195912
404.187788,14063.912898,592.164754,-72779.072310
404.190370,3701.029710,-6661.853478,-75537.016103
404.192952,-5181.441594,4737.318029,-77222.426198
404.195534,-21465.972318,22946.384202,-77222.426198
404.198116,18949.272115,12287.418637,-72319.415011
404.200698,5625.565159,3108.864956,-74464.482406
404.203280,-20133.601622,13915.871710,-75690.235202
404.205862,10066.800811,7846.182985,-74770.920605
404.208444,-1332.370696,19541.436869,-75537.016103
404.211026,-17764.942608,21910.095883,-78754.617194
404.213608,24574.837274,-9770.718434,-72625.853210
404.216190,9918.759623,22798.343014,-71859.757712
404.218772,-5033.400406,14359.995275,-75996.673402
404.221354,15396.283594,3108.864956,-70940.443115
404.223936,11695.253884,-3849.070898,-72012.976812
404.226518,-1924.535449,5921.647536,-75383.797003
404.229100,12879.583391,6217.729913,-74464.482406
404.231682,1628.453072,-1184.329507,-75996.673402
404.234264,-3404.947333,13323.706956,-73391.948708
404.236857,15100.201217,5329.482782,-70480.785816
404.239449,15840.407159,-148.041188,-72472.634111
404.242042,-7254.018232,-296.082377,-76762.768900
404.244634,1480.411884,5033.400406,-76609.549800
404.247227,-5625.565159,-3849.070898,-75843.454302
404.249819,15988.448347,-5033.400406,-70021.128517
404.252411,18801.230927,-6809.894666,-72012.976812
404.255004,-16580.613101,-10658.965565,-78907.836294
404.257596,1924.535449,1924.535449,-74464.482406
404.260189,14063.912898,1036.288319,-73238.729609
404.262781,2368.659014,-3108.864956,-75690.235202
404.265373,3849.070898,-2220.617826,-72779.072310
404.267966,-2960.823768,-3108.864956,-76149.892501
404.270558,-1776.494261,-9030.512492,-75537.016103
404.273151,6661.853478,-5033.400406,-73545.167808
404.275743,-1332.370696,9326.594869,-75383.797003
404.278335,-2664.741391,6513.812290,-74311.263306
404.280928,8438.347739,28571.949361,-70940.443115
404.283520,26203.290347,-15840.407159,-72472.634111
404.286113,21910.095883,-19097.313304,-72472.634111
404.288705,2072.576638,-24278.754898,-72932.291410
404.291297,10510.924376,-15248.242405,-70940.443115
404.293890,18505.148550,-10955.047942,-75383.797003
404.296482,-12139.377449,296.082377,-78294.959896
404.299075,-6069.688724,444.123565,-74770.920605
404.301667,6069.688724,-888.247130,-71246.881314
404.304260,-6217.729913,9622.677246,-76762.768900
404.306852,-12879.583391,5033.400406,-78907.836294
404.309444,-7254.018232,5921.647536,-77222.426198
404.312037,-4145.153275,5773.606348,-73698.386908
404.314629,11991.336260,-14359.995275,-71706.538613
404.317222,13027.624579,1036.288319,-72012.976812
404.319814,-7402.059420,4885.359217,-76609.549800
404.322406,-8586.388927,6957.935855,-77835.302597
404.324999,1480.411884,14211.954086,-74464.482406
404.327591,22946.384202,6365.771101,-72625.853210
404.330184,-7402.059420,6069.688724,-75383.797003
404.332776,2960.823768,5773.606348,-72319.415011
404.335368,17912.983796,2072.576638,-72625.853210
404.337961,2960.823768,-9030.512492,-75843.454302
404.340560,15100.201217,-10658.965565,-73698.386908
404.343158,-5181.441594,-1480.411884,-75383.797003
404.345757,-8142.265362,18505.148550,-73698.386908
404.348356,17468.860231,3849.070898,-71553.319513
404.350955,-5329.482782,-2368.659014,-75843.454302
404.353554,0.000000,5181.441594,-75077.358804
404.356152,15988.448347,-7698.141797,-72625.853210
404.358751,8142.265362,2072.576638,-73698.386908
404.361350,-2516.700203,7846.182985,-76303.111601
404.363949,-2664.741391,-13471.748144,-75077.358804
404.366548,2368.659014,7105.977043,-72932.291410
404.369146,-7105.977043,22058.137072,-75690.235202
404.371745,-7105.977043,21021.848753,-76762.768900
404.374344,3997.112087,10658.965565,-75383.797003
404.376943,8882.471304,-1036.288319,-75537.016103
404.379542,-12731.542202,16876.695478,-76456.330700
404.382140,8290.306550,9918.759623,-71553.319513
404.384739,22502.260637,888.247130,-70787.224015
404.387338,-9030.512492,-1480.411884,-77528.864398
404.389937,-4441.235652,9474.636058,-76149.892501
404.392536,-2812.782580,-3256.906145,-74464.482406
404.395134,21317.931130,1628.453072,-71553.319513
404.397733,-3701.029710,-5329.482782,-76762.768900
404.400332,-19689.478057,-10658.965565,-77682.083497
404.402931,15544.324782,-6217.729913,-72319.415011
404.405530,14804.118840,-1776.494261,-72779.072310
404.408128,6217.729913,-2960.823768,-75996.673402
404.410727,-1332.370696,-1628.453072,-74617.701505
404.413326,-6513.812290,2664.741391,-75077.358804
404.415925,6217.729913,-8290.306550,-73545.167808
404.418524,9770.718434,-10066.800811,-73391.948708
404.421122,592.164754,2368.659014,-75690.235202
404.423721,2516.700203,-1184.329507,-73391.948708
404.426320,9178.553681,-3552.988522,-72932.291410
404.428919,23686.590144,-19689.478057,-70327.566716
404.431518,28719.990550,-14211.954086,-70940.443115
404.434116,-10807.006753,13175.665768,-76456.330700
404.436715,16580.613101,-7402.059420,-76609.549800
404.439314,28571.949361,-18061.024985,-69408.252119
404.441913,12139.377449,-18653.189738,-72779.072310
404.444516,-5181.441594,-4293.194464,-74770.920605
404.447120,1184.329507,-2072.576638,-73238.729609
404.449723,7846.182985,-7550.100608,-73085.510509
404.452327,10362.883188,-9178.553681,-73851.606007
404.454930,2664.741391,-11547.212695,-75996.673402
404.457534,-14952.160028,5329.482782,-76915.987999
404.460137,-6513.812290,-6069.688724,-76456.330700
404.462740,3849.070898,-7402.059420,-73238.729609
404.465344,9770.718434,5477.523971,-71553.319513
404.467947,1628.453072,3849.070898,-72166.195912
404.470551,-8438.347739,148.041188,-77988.521696
404.473154,-12583.501014,10362.883188,-75077.358804
404.475758,10955.047942,11695.253884,-72319.415011
404.478361,-3997.112087,2960.823768,-75537.016103
404.480965,-3108.864956,5329.482782,-75537.016103
404.483568,-4885.359217,15692.365970,-75690.235202
404.486172,13175.665768,5329.482782,-73698.386908
404.488775,14952.160028,-7254.018232,-73238.729609
404.491378,-10362.883188,9326.594869,-74617.701505
404.493982,7698.141797,15840.407159,-71093.662214
404.496585,7550.100608,2516.700203,-75843.454302
404.499189,-8882.471304,16580.613101,-75843.454302
404.501792,-5921.647536,3256.906145,-76609.549800
404.504396,-3108.864956,7698.141797,-76456.330700
404.506999,-148.041188,-11103.089130,-74617.701505
404.509603,-7254.018232,15692.365970,-72472.634111
404.512206,-17764.942608,27387.619854,-77682.083497
404.514809,-2368.659014,12583.501014,-76149.892501
404.517413,16876.695478,10510.924376,-73085.510509
404.520016,444.123565,13027.624579,-76303.111601
404.522620,-10066.800811,17172.777854,-76609.549800
404.525223,23834.631332,-2220.617826,-69867.909418
404.527782,24426.796086,-1776.494261,-70327.566716
404.530341,-12879.583391,6661.853478,-76762.768900
404.532901,-5477.523971,14211.954086,-76456.330700
404.535461,-5329.482782,-7550.100608,-76303.111601
404.538020,24278.754898,-10066.800811,-71400.100414
404.540580,3997.112087,2368.659014,-75230.577904
404.543140,-26499.372724,-5181.441594,-79827.150892
404.545699,10807.006753,-3256.906145,-72166.195912
404.548259,7402.059420,-5329.482782,-73238.729609
404.550819,-740.205942,2368.659014,-76609.549800
404.553379,592.164754,1332.370696,-74924.139704
404.555938,-3108.864956,-6217.729913,-75996.673402
404.558498,2664.741391,-11103.089130,-73238.729609
404.561058,6513.812290,-6661.853478,-72932.291410
404.563617,-592.164754,7402.059420,-72779.072310
404.566177,-296.082377,11843.295072,-77988.521696
404.568737,-4441.235652,23834.631332,-76762.768900
404.571296,-16284.530724,10658.965565,-76915.987999
404.573856,13767.830521,-13323.706956,-71246.881314
404.576416,9770.718434,3997.112087,-70787.224015
404.578975,-25611.125593,18949.272115,-79367.493593
404.581535,-2960.823768,-8734.430116,-77375.645298
404.584095,26203.290347,-36566.173535,-70787.224015
404.586655,4145.153275,-8438.347739,-72012.976812
404.589214,-13175.665768,9918.759623,-77069.207099
404.591774,2960.823768,-11547.212695,-74158.044206
404.594334,8882.471304,-6217.729913,-75077.358804
404.596893,3256.906145,1924.535449,-74004.825107
404.599453,2220.617826,-10807.006753,-74158.044206
404.602013,15544.324782,-1480.411884,-71400.100414
404.604572,3108.864956,-2368.659014,-74924.139704
404.607132,-17912.983796,9326.594869,-79061.055394
404.609692,-3404.947333,14656.077652,-74464.482406
404.612251,31088.649564,2220.617826,-71093.662214
404.614811,-1924.535449,4145.153275,-75383.797003
404.617371,-4589.276840,5625.565159,-73698.386908
404.619931,8142.265362,6365.771101,-73698.386908
404.622490,5921.647536,-7105.977043,-75077.358804
404.625050,-6661.853478,8142.265362,-75996.673402
404.627610,-16432.571912,17616.901420,-76456.330700
404.630181,1480.411884,23834.631332,-74004.825107
404.632753,9178.553681,-1036.288319,-73391.948708
404.635324,444.123565,9918.759623,-76456.330700
404.637896,-8142.265362,28719.990550,-75230.577904
404.640468,-8734.430116,10066.800811,-77069.207099
404.643039,17320.819043,-16136.489536,-72472.634111
404.645611,13027.624579,4145.153275,-72012.976812
404.648182,-20429.683999,23390.507767,-77375.645298
404.650754,-2812.782580,8438.347739,-75077.358804
404.653325,18653.189738,-13915.871710,-71246.881314
404.655897,4145.153275,10214.842000,-72472.634111
404.658469,-1036.288319,18949.272115,-76149.892501
404.661040,-13471.748144,16876.695478,-79214.274493
404.663612,-3552.988522,148.041188,-74311.263306
404.666183,28423.908173,-2368.659014,-68335.718422
404.668755,1480.411884,10807.006753,-74004.825107
404.671326,-4737.318029,6365.771101,-76762.768900
404.673898,-2220.617826,-11251.130318,-74617.701505
404.676470,26647.413912,-1628.453072,-69714.690318
404.679041,-1480.411884,2812.782580,-77375.645298
404.681613,-23834.631332,-12287.418637,-79980.369991
404.684184,19985.560434,-8882.471304,-70174.347617
404.686756,1480.411884,-2516.700203,-74617.701505
404.689328,-4441.235652,-592.164754,-75537.016103
404.691899,2368.659014,-4145.153275,-75230.577904
404.694471,-1776.494261,-6957.935855,-75537.016103
404.697042,3404.947333,-13027.624579,-74464.482406
404.699614,10807.006753,-14063.912898,-72932.291410
404.702185,-444.123565,11547.212695,-75537.016103
404.704757,-9474.636058,-5625.565159,-75996.673402
404.707329,-3997.112087,-9030.512492,-73391.948708
404.709900,-23538.548956,19393.395680,-78601.398095
404.712472,-23390.507767,-6661.853478,-80593.246390
404.715043,-592.164754,-17764.942608,-73851.606007
404.717615,-17912.983796,22206.178260,-73698.386908
404.720186,-9474.636058,12583.501014,-76915.987999
404.722758,-18209.066173,16876.695478,-79520.712692
404.725330,2220.617826,-8586.388927,-73698.386908
404.727901,6365.771101,1184.329507,-72472.634111
404.730473,-8734.430116,11399.171507,-76762.768900
404.733054,-444.123565,-9622.677246,-76303.111601
404.735635,5329.482782,2664.741391,-75383.797003
404.738216,-7550.100608,1776.494261,-77222.426198
404.740797,-8290.306550,-6809.894666,-74924.139704
404.743378,12879.583391,296.082377,-71093.662214
404.745959,11547.212695,2516.700203,-73391.948708
404.748540,-11991.336260,11399.171507,-77375.645298
404.751121,-1628.453072,13175.665768,-74770.920605
404.753702,5921.647536,11547.212695,-73085.510509
404.756283,7846.182985,-3849.070898,-74770.920605
404.758864,296.082377,4293.194464,-74464.482406
404.761445,-9326.594869,14063.912898,-75690.235202
404.764026,13915.871710,8290.306550,-73238.729609
404.766607,13323.706956,-10362.883188,-74158.044206
404.769188,-7846.182985,6513.812290,-75383.797003
404.771769,-1480.411884,18505.148550,-72472.634111
404.774350,12435.459826,15396.283594,-75077.358804
404.776931,17616.901420,-10658.965565,-73391.948708
404.779512,10955.047942,-4145.153275,-72779.072310
404.782093,-8882.471304,15248.242405,-75537.016103
404.784674,-14508.036463,22798.343014,-77375.645298
404.787255,7105.977043,2516.700203,-72932.291410
404.789836,19541.436869,-16728.654289,-70327.566716
404.792417,-3552.988522,5921.647536,-72625.853210
404.794998,-2072.576638,16580.613101,-75996.673402
404.797579,-4737.318029,9326.594869,-79214.274493
404.800160,-8882.471304,888.247130,-74924.139704
404.802741,19097.313304,3552.988522,-69255.033019
404.805322,1036.288319,17172.777854,-73391.948708
404.807903,-592.164754,2960.823768,-76609.549800
404.810484,740.205942,-9326.594869,-73085.510509
404.813065,22798.343014,-740.205942,-70480.785816
404.815646,18061.024985,-2812.782580,-70940.443115
404.818227,-11103.089130,-8290.306550,-78601.398095
404.820808,1036.288319,148.041188,-73698.386908
404.823389,9326.594869,-1924.535449,-71706.538613
404.825970,3552.988522,2516.700203,-74770.920605
404.828551,1480.411884,-3552.988522,-75383.797003
404.831132,-1924.535449,-4737.318029,-75690.235202
404.833713,7254.018232,-11695.253884,-73238.729609
404.836256,9474.636058,-6365.771101,-73851.606007
404.838799,-9474.636058,-5329.482782,-78141.740796
404.841341,-5773.606348,-6957.935855,-75383.797003
404.843884,20725.766376,-29904.320057,-72012.976812
404.846427,9918.759623,-6513.812290,-69561.471218
404.848970,8438.347739,0.000000,-71706.538613
404.851513,9326.594869,-6513.812290,-74158.044206
404.854056,25611.125593,-23242.466579,-71093.662214
404.856599,9770.718434,-7698.141797,-74158.044206
404.859142,-6957.935855,5477.523971,-77835.302597
404.861685,-296.082377,-11251.130318,-75383.797003
404.864228,6069.688724,-6957.935855,-71706.538613
404.866771,-7550.100608,13619.789333,-75537.016103
404.869314,-16728.654289,13471.748144,-77682.083497
404.871857,10807.006753,-20281.642811,-73085.510509
404.874400,21169.889941,-2812.782580,-70480.785816
404.876943,-12731.542202,-2072.576638,-72012.976812
404.879486,-10955.047942,10510.924376,-78448.178995
404.882029,-18505.148550,17468.860231,-76456.330700
404.884572,18801.230927,15248.242405,-72319.415011
404.887115,5625.565159,1776.494261,-75077.358804
404.889658,-2960.823768,5033.400406,-74158.044206
404.892201,1776.494261,8290.306550,-74311.263306
404.894744,2664.741391,-5181.441594,-74924.139704
404.897287,-740.205942,4885.359217,-75537.016103
404.899830,-10214.842000,25907.207970,-76149.892501
404.902373,11251.130318,8142.265362,-74464.482406
404.904916,3849.070898,-16876.695478,-74617.701505
404.907459,-148.041188,2812.782580,-72472.634111
404.910002,10807.006753,-23242.466579,-72472.634111
404.912545,24870.919651,3849.070898,-71246.881314
404.915088,-7698.141797,14063.912898,-75230.577904
404.917631,5625.565159,444.123565,-75383.797003
404.920174,27535.661042,-21317.931130,-71400.100414
404.922717,444.123565,0.000000,-72625.853210
404.925260,-18653.189738,28571.949361,-75537.016103
404.927802,6365.771101,9622.677246,-75077.358804
404.930345,444.123565,7402.059420,-77222.426198
404.932888,-16432.571912,13027.624579,-76915.987999
404.935431,12435.459826,11103.089130,-71093.662214
404.937989,7846.182985,3997.112087,-73085.510509
404.940548,10807.006753,14211.954086,-73698.386908
404.943106,-12879.583391,-2368.659014,-77375.645298
404.945664,6957.935855,-5625.565159,-73238.729609
404.948222,19245.354492,-9474.636058,-72472.634111
404.950780,-12435.459826,-5477.523971,-78448.178995
404.953338,-3997.112087,9030.512492,-75230.577904
404.955896,6957.935855,-4441.235652,-73391.948708
404.958454,3849.070898,-1480.411884,-75537.016103
404.961012,-3256.906145,1480.411884,-74464.482406
404.963570,-444.123565,-3849.070898,-75230.577904
404.966128,10214.842000,-17024.736666,-73698.386908
404.968686,0.000000,-3404.947333,-74924.139704
404.971244,-11251.130318,17320.819043,-74924.139704
404.973802,-10658.965565,16728.654289,-75843.454302
404.976361,-6957.935855,13027.624579,-75996.673402
404.978919,-2220.617826,-5033.400406,-76149.892501
404.981477,10066.800811,-2368.659014,-71859.757712
404.984035,15100.201217,-7698.141797,-72779.072310
404.986593,16876.695478,-5921.647536,-71246.881314
404.989151,4145.153275,-4293.194464,-74924.139704
404.991709,-1184.329507,-12731.542202,-75843.454302
404.994267,8882.471304,-13915.871710,-71246.881314
404.996825,8438.347739,-888.247130,-72166.195912
404.999383,3701.029710,-9770.718434,-75230.577904
405.001941,-11399.171507,7402.059420,-77835.302597
405.004499,-4885.359217,1924.535449,-77375.645298
405.007057,-15248.242405,-3701.029710,-77069.207099
405.009615,15248.242405,1184.329507,-69867.909418
405.012174,26351.331535,-3849.070898,-70021.128517
405.014732,-11991.336260,4885.359217,-78448.178995
405.017290,-14656.077652,11695.253884,-75537.016103
405.019848,18949.272115,10807.006753,-71400.100414
405.022406,296.082377,-444.123565,-75537.016103
405.024964,-11251.130318,5477.523971,-75996.673402
405.027522,3997.112087,7550.100608,-73238.729609
405.030080,21021.848753,-740.205942,-72779.072310
405.032638,-9770.718434,15692.365970,-77375.645298
405.035196,444.123565,20725.766376,-77222.426198
405.037754,0.000000,2812.782580,-72625.853210
405.040324,14656.077652,-35381.844028,-72319.415011
405.042894,20873.807564,-10658.965565,-70634.004916
405.045464,-19393.395680,20281.642811,-77988.521696
405.048034,-30200.402434,52850.704259,-81818.999186
405.050604,-8586.388927,18061.024985,-77069.207099
405.053174,17024.736666,-15100.201217,-73851.606007
405.055744,-4885.359217,6661.853478,-72319.415011
405.058314,-7846.182985,26499.372724,-74311.263306
405.060884,1332.370696,18653.189738,-77528.864398
405.063454,9030.512492,-9622.677246,-74617.701505
405.066024,13767.830521,-9178.553681,-72472.634111
405.068594,15988.448347,5625.565159,-70174.347617
405.071164,-5329.482782,17616.901420,-75996.673402
405.073735,-14508.036463,-2664.741391,-77069.207099
405.076305,28127.825796,-14804.118840,-69714.690318
405.078875,7105.977043,3701.029710,-75077.358804
405.081445,-33013.185013,-2220.617826,-80593.246390
405.084015,13027.624579,-4589.276840,-72625.853210
405.086585,10066.800811,-10066.800811,-72779.072310
405.089155,-5625.565159,10510.924376,-76149.892501
405.091725,-9622.677246,7254.018232,-76762.768900
405.094295,2812.782580,-11399.171507,-74924.139704
405.096865,12731.542202,-14211.954086,-72779.072310
405.099435,3108.864956,3701.029710,-73085.510509
405.102005,-7698.141797,-4737.318029,-76915.987999
405.104575,3552.988522,-17912.983796,-73851.606007
405.107145,-5181.441594,5033.400406,-75996.673402
405.109715,-19245.354492,14211.954086,-78907.836294
405.112285,1924.535449,-2516.700203,-74464.482406
405.114855,25315.043216,-18801.230927,-71553.319513
405.117425,4589.276840,740.205942,-72625.853210
405.119995,-10658.965565,10955.047942,-77069.207099
405.122565,7105.977043,-7994.224174,-77222.426198
405.125135,13619.789333,-20429.683999,-72319.415011
405.127705,-7550.100608,9326.594869,-74464.482406
405.130275,-14508.036463,10510.924376,-75077.358804
405.132845,11103.089130,-13175.665768,-72472.634111
405.135415,22650.301825,-9030.512492,-72012.976812
405.137985,-11103.089130,-2368.659014,-77528.864398
405.140555,-18653.189738,13767.830521,-77988.521696
405.143133,8734.430116,13323.706956,-72166.195912
405.145712,28868.031738,-5329.482782,-71400.100414
405.148290,-8142.265362,9474.636058,-75690.235202
405.150868,-2072.576638,15396.283594,-74004.825107
405.153446,10955.047942,-4885.359217,-73545.167808
405.156025,8438.347739,-592.164754,-74004.825107
405.158603,-6513.812290,8142.265362,-74924.139704
405.161181,7846.182985,11251.130318,-74004.825107
405.163760,9622.677246,3701.029710,-72779.072310
405.166338,10362.883188,-4885.359217,-73391.948708
405.168916,-8290.306550,-17912.983796,-75077.358804
405.171495,-20429.683999,16876.695478,-76609.549800
405.174073,-22798.343014,16284.530724,-78601.398095
405.176651,8882.471304,-20577.725188,-73698.386908
405.179230,11695.253884,-5625.565159,-72012.976812
405.181808,-19245.354492,27239.578666,-78294.959896
405.184386,-11103.089130,31088.649564,-75537.016103
405.186964,13027.624579,8142.265362,-73238.729609
405.189543,3108.864956,7994.224174,-74617.701505
405.192121,14063.912898,8142.265362,-76149.892501
405.194699,10362.883188,9030.512492,-72472.634111
405.197278,-888.247130,13915.871710,-74770.920605
405.199856,-6217.729913,-2220.617826,-77222.426198
405.202434,-7994.224174,2812.782580,-72932.291410
405.205013,16728.654289,12731.542202,-71859.757712
405.207591,-13619.789333,-2664.741391,-79673.931792
405.210169,-10955.047942,-16876.695478,-77222.426198
405.212748,16728.654289,-11991.336260,-70940.443115
405.215326,-3552.988522,4737.318029,-74924.139704
405.217904,-1776.494261,16136.489536,-75230.577904
405.220482,-296.082377,-3849.070898,-75077.358804
405.223061,9622.677246,-12731.542202,-73851.606007
405.225639,10214.842000,-11843.295072,-73698.386908
405.228217,-5329.482782,4293.194464,-74770.920605
405.230796,-2664.741391,-11547.212695,-75383.797003
405.233374,3849.070898,-19689.478057,-74158.044206
405.235952,-2368.659014,25167.002028,-75996.673402
405.238531,-18357.107362,45004.521274,-78448.178995
405.241109,13915.871710,-42635.862259,-75996.673402
405.243687,31236.690752,-38046.585419,-65730.993728
405.246272,-14804.118840,22946.384202,-75230.577904
405.248857,-23686.590144,26055.249158,-81359.341888
405.251442,22354.219448,-28127.825796,-74464.482406
405.254026,19837.519246,-19689.478057,-70940.443115
405.256611,9918.759623,-2812.782580,-72166.195912
405.259196,-32421.020260,29460.196492,-77682.083497
405.261781,-5033.400406,-13027.624579,-75690.235202
405.264366,32421.020260,-13027.624579,-69101.813920
405.266951,2220.617826,1924.535449,-74464.482406
405.269535,-21021.848753,20281.642811,-79980.369991
405.272120,-6069.688724,11251.130318,-75230.577904
405.274705,33753.390955,888.247130,-69561.471218
405.277290,-888.247130,5625.565159,-74770.920605
405.279875,-9474.636058,12435.459826,-75843.454302
405.282460,9474.636058,3701.029710,-74158.044206
405.285044,8290.306550,-296.082377,-74158.044206
405.287629,-4589.276840,6809.894666,-75843.454302
405.290214,-6809.894666,14804.118840,-75843.454302
405.292799,8882.471304,-4737.318029,-73391.948708
405.295384,12879.583391,17912.983796,-71859.757712
405.297969,4885.359217,22502.260637,-75230.577904
405.300553,10214.842000,-5329.482782,-73851.606007
405.303138,17468.860231,-15544.324782,-71246.881314
405.305723,5033.400406,-20725.766376,-72166.195912
405.308308,7994.224174,444.123565,-74311.263306
405.310893,4885.359217,18061.024985,-73545.167808
405.313478,-296.082377,19245.354492,-75843.454302
405.316062,1924.535449,-8142.265362,-74311.263306
405.318647,5329.482782,740.205942,-73698.386908
405.321232,4441.235652,6217.729913,-74464.482406
405.323817,-15100.201217,17616.901420,-78141.740796
405.326402,-2960.823768,1628.453072,-74770.920605
405.328986,15100.201217,14211.954086,-71246.881314
405.331571,-5181.441594,14804.118840,-76149.892501
405.334156,-2072.576638,-14359.995275,-76303.111601
405.336741,25759.166782,-20873.807564,-70021.128517
405.339326,-2220.617826,-1480.411884,-76456.330700
405.341911,-14656.077652,9622.677246,-76456.330700
405.344495,10807.006753,-4293.194464,-72166.195912
405.347080,14952.160028,-9622.677246,-73851.606007
405.349628,-5181.441594,3108.864956,-75537.016103
405.352177,-7550.100608,-740.205942,-75690.235202
405.354725,1628.453072,-6069.688724,-74770.920605
405.357273,8734.430116,-16136.489536,-74617.701505
405.359821,-5921.647536,-11251.130318,-74770.920605
405.362369,-2368.659014,-14063.912898,-74464.482406
405.364917,-4885.359217,13175.665768,-75077.358804
405.367465,-16432.571912,38046.585419,-79520.712692
405.370014,-2516.700203,2960.823768,-78448.178995
405.372562,15100.201217,-28868.031738,-70634.004916
405.375110,1184.329507,3997.112087,-71400.100414
405.377658,-8734.430116,11843.295072,-77375.645298
405.380206,9326.594869,-21317.931130,-75843.454302
405.382754,13471.748144,-17764.942608,-75077.358804
405.385302,-740.205942,-740.205942,-70634.004916
405.387851,6513.812290,-3701.029710,-71706.538613
405.390399,16580.613101,-2812.782580,-72932.291410
405.392947,2368.659014,-11103.089130,-76609.549800
405.395495,-14656.077652,7550.100608,-77835.302597
405.398043,296.082377,26203.290347,-72932.291410
405.400591,27387.619854,1184.329507,-71859.757712
405.403139,-3256.906145,2220.617826,-75690.235202
405.405688,-148.041188,8734.430116,-72932.291410
405.408236,5921.647536,2960.823768,-74464.482406
405.410784,1628.453072,5773.606348,-75077.358804
405.413332,-148.041188,9326.594869,-76303.111601
405.415880,-296.082377,9474.636058,-74617.701505
405.418428,18061.024985,12583.501014,-70940.443115
405.420976,1332.370696,-10658.965565,-74770.920605
405.423525,-16876.695478,8586.388927,-76609.549800
405.426073,-17764.942608,10362.883188,-76456.330700
405.428621,148.041188,3701.029710,-74311.263306
405.431169,15988.448347,-16876.695478,-72012.976812
405.433717,3404.947333,1036.288319,-75383.797003
405.436265,-21169.889941,25907.207970,-76456.330700
405.438813,7105.977043,21317.931130,-74004.825107
405.441362,7994.224174,6217.729913,-72779.072310
405.443910,15988.448347,296.082377,-72779.072310
405.446458,13471.748144,-2072.576638,-72166.195912
405.449006,-2220.617826,17024.736666,-75077.358804
405.451566,-4737.318029,5773.606348,-76456.330700
405.454127,3404.947333,7402.059420,-72472.634111
405.456687,10362.883188,15988.448347,-73698.386908
405.459248,-16284.530724,-5921.647536,-79214.274493
405.461808,6217.729913,-20725.766376,-73851.606007
405.464369,20133.601622,-17172.777854,-70940.443115
405.466929,-12583.501014,7254.018232,-75690.235202
405.469489,4589.276840,13915.871710,-74770.920605
405.472050,12139.377449,-5921.647536,-73238.729609
405.474610,9474.636058,-7698.141797,-72932.291410
405.477171,6217.729913,-5921.647536,-73085.510509
405.479731,-296.082377,4293.194464,-74004.825107
405.482291,-148.041188,-7402.059420,-76456.330700
405.484852,-8734.430116,-5329.482782,-74770.920605
405.487412,-13175.665768,17024.736666,-76609.549800
405.489973,-8586.388927,-296.082377,-77988.521696
405.492533,-740.205942,2072.576638,-75077.358804
405.495093,-18357.107362,14804.118840,-74924.139704
405.497654,-13175.665768,3997.112087,-78294.959896
405.500214,13027.624579,-15100.201217,-73851.606007
405.502775,8734.430116,-4441.235652,-74617.701505
405.505335,-7254.018232,4885.359217,-76149.892501
405.507896,8142.265362,-20429.683999,-71859.757712
405.510456,21614.013506,-10510.924376,-70787.224015
405.513016,14804.118840,2516.700203,-73545.167808
405.515577,-23538.548956,2368.659014,-80133.589091
405.518137,1628.453072,-7105.977043,-74311.263306
405.520698,26351.331535,5181.441594,-69101.813920
405.523258,1628.453072,4885.359217,-74924.139704
405.525818,-13767.830521,13323.706956,-75996.673402
405.528379,9326.594869,11547.212695,-72166.195912
405.530939,6661.853478,-3997.112087,-74004.825107
405.533500,148.041188,2072.576638,-74770.920605
405.536060,3997.112087,-2812.782580,-74158.044206
405.538620,7698.141797,6513.812290,-74158.044206
405.541181,-740.205942,14952.160028,-74617.701505
405.543741,-9178.553681,-5921.647536,-75537.016103
405.546302,6661.853478,-32272.979071,-73851.606007
405.548862,3404.947333,2960.823768,-72166.195912
405.551423,-24722.878463,33013.185013,-79061.055394
405.553952,-26055.249158,50334.004056,-80593.246390
405.556482,-7550.100608,18209.066173,-76456.330700
405.559012,11251.130318,-9030.512492,-73698.386908
405.561542,1924.535449,5625.565159,-71246.881314
405.564072,-6217.729913,26203.290347,-74770.920605
405.566602,11399.171507,-2664.741391,-73698.386908
405.569132,28275.866984,-22650.301825,-70634.004916
405.571662,2812.782580,7105.977043,-72779.072310
405.574192,-6069.688724,9326.594869,-75537.016103
405.576722,-12731.542202,12583.501014,-75383.797003
405.579252,20725.766376,8586.388927,-72166.195912
405.581782,-13915.871710,-5921.647536,-77988.521696
405.584312,-10066.800811,-9030.512492,-76303.111601
405.586842,17616.901420,-14804.118840,-72166.195912
405.589372,-2960.823768,1776.494261,-74311.263306
405.591902,2664.741391,12287.418637,-74770.920605
405.594432,3108.864956,740.205942,-75230.577904
405.596962,7105.977043,-9178.553681,-74158.044206
405.599492,3701.029710,-8734.430116,-72932.291410
405.602022,7550.100608,-5921.647536,-74311.263306
405.604552,6365.771101,20133.601622,-75230.577904
405.607082,5477.523971,-888.247130,-75996.673402
405.609612,15248.242405,-8734.430116,-72625.853210
405.612142,10214.842000,-10955.047942,-71859.757712
405.614672,-9770.718434,7105.977043,-76149.892501
405.617202,-17024.736666,8586.388927,-77375.645298
405.619732,15544.324782,-21169.889941,-72319.415011
405.622262,11843.295072,-14508.036463,-72012.976812
405.624792,-4145.153275,9326.594869,-75996.673402
405.627322,-592.164754,-444.123565,-77528.864398
405.629852,-6217.729913,-2960.823768,-73698.386908
405.632382,11251.130318,-12731.542202,-70327.566716
405.634912,13027.624579,888.247130,-70327.566716
405.637442,11103.089130,1628.453072,-74004.825107
405.639972,-11399.171507,11251.130318,-79367.493593
405.642502,-17764.942608,19985.560434,-75537.016103
405.645032,24574.837274,15988.448347,-69714.690318
405.647562,9030.512492,4441.235652,-73698.386908
405.650092,-5329.482782,6513.812290,-75230.577904
405.652622,2664.741391,5033.400406,-74311.263306
405.655168,7994.224174,9622.677246,-74617.701505
405.657714,-1036.288319,8438.347739,-74464.482406
405.660260,11251.130318,-888.247130,-73238.729609
405.662806,11695.253884,12287.418637,-72932.291410
405.665352,-6513.812290,-7698.141797,-74158.044206
405.667898,-1480.411884,-6069.688724,-75690.235202
405.670444,-11547.212695,10066.800811,-74617.701505
405.672990,-1480.411884,-3552.988522,-74464.482406
405.675535,10955.047942,14656.077652,-73698.386908
405.678081,-14656.077652,21465.972318,-79520.712692
405.680627,-15544.324782,22946.384202,-77375.645298
405.683173,4737.318029,14656.077652,-72932.291410
405.685719,24574.837274,6069.688724,-70940.443115
405.688265,9326.594869,-5921.647536,-74924.139704
405.690811,-15248.242405,7550.100608,-76303.111601
405.693357,7402.059420,4885.359217,-72779.072310
405.695903,21910.095883,14211.954086,-70480.785816
405.698449,14359.995275,13767.830521,-74617.701505
405.700995,-17320.819043,-12879.583391,-78601.398095
405.703541,14804.118840,-21910.095883,-71093.662214
405.706087,13471.748144,-11991.336260,-72779.072310
405.708633,-15100.201217,8438.347739,-76609.549800
405.711179,9622.677246,8438.347739,-72779.072310
405.713725,18949.272115,-11547.212695,-73085.510509
405.716271,7698.141797,-12139.377449,-74464.482406
405.718817,-7105.977043,-2664.741391,-75077.358804
405.721363,148.041188,-9918.759623,-75690.235202
405.723909,10658.965565,888.247130,-73238.729609
405.726455,8586.388927,31384.731941,-72779.072310
405.729001,3552.988522,21762.054695,-77375.645298
405.731547,-2072.576638,15692.365970,-77528.864398
405.734093,23094.425390,-18357.107362,-70787.224015
405.736639,24722.878463,-20281.642811,-68029.280222
405.739185,-888.247130,1924.535449,-74617.701505
405.741731,-8142.265362,-4145.153275,-78141.740796
405.744277,13027.624579,-20577.725188,-73238.729609
405.746823,19689.478057,-12139.377449,-70327.566716
405.749369,-16136.489536,11399.171507,-77069.207099
405.751915,-19097.313304,-7402.059420,-78294.959896
405.754461,19245.354492,-13619.789333,-70327.566716
405.756981,12287.418637,592.164754,-72932.291410
405.759501,5033.400406,2960.823768,-75230.577904
405.762020,-18209.066173,20873.807564,-78294.959896
405.764540,4145.153275,13915.871710,-73545.167808
405.767060,592.164754,7402.059420,-74464.482406
405.769580,-9474.636058,7402.059420,-76303.111601
405.772100,4589.276840,10214.842000,-74464.482406
405.774620,5181.441594,7550.100608,-75537.016103
405.777140,-12139.377449,11843.295072,-76609.549800
405.779660,8290.306550,2960.823768,-72779.072310
405.782180,12139.377449,13175.665768,-71706.538613
405.784700,-6365.771101,18949.272115,-75996.673402
405.787220,12879.583391,-3997.112087,-72932.291410
405.789740,23390.507767,-12731.542202,-71400.100414
405.792259,16136.489536,-18653.189738,-71553.319513
405.794779,-5625.565159,8438.347739,-75996.673402
405.797299,-17320.819043,26351.331535,-76303.111601
405.799819,7105.977043,5773.606348,-73238.729609
405.802339,14359.995275,-1480.411884,-74004.825107
405.804859,-17024.736666,6957.935855,-78141.740796
405.807379,-8142.265362,12583.501014,-74311.263306
405.809899,11399.171507,5773.606348,-72625.853210
405.812419,7994.224174,2368.659014,-74924.139704
405.814939,-13471.748144,9326.594869,-75996.673402
405.817459,11991.336260,11843.295072,-73391.948708
405.819979,-12139.377449,-5033.400406,-78448.178995
405.822499,-21021.848753,-9474.636058,-79214.274493
405.825018,11695.253884,-2960.823768,-73085.510509
405.827538,3552.988522,-2812.782580,-74464.482406
405.830058,-9770.718434,9622.677246,-76149.892501
405.832578,-10066.800811,3404.947333,-76915.987999
405.835098,2516.700203,-9770.718434,-74158.044206
405.837618,5477.523971,-11695.253884,-73851.606007
405.840138,-148.041188,12435.459826,-74770.920605
405.842658,296.082377,20429.683999,-76456.330700
405.845178,3108.864956,7994.224174,-74311.263306
405.847698,14359.995275,-10066.800811,-72319.415011
405.850218,8882.471304,6217.729913,-72932.291410
405.852738,4589.276840,-10955.047942,-74924.139704
405.855258,-5033.400406,-2812.782580,-77222.426198
405.857796,8734.430116,-17320.819043,-74004.825107
405.860334,5181.441594,-2664.741391,-74311.263306
405.862872,2960.823768,1776.494261,-75230.577904
405.865410,-6957.935855,2812.782580,-74924.139704
405.867948,2368.659014,-17172.777854,-72779.072310
405.870486,23390.507767,-1184.329507,-68795.375720
405.873024,1036.288319,-1628.453072,-76149.892501
405.875562,-15396.283594,10214.842000,-80286.808190
405.878100,2516.700203,5033.400406,-74311.263306
405.880638,30200.402434,-148.041188,-70021.128517
405.883176,-296.082377,10510.924376,-71553.319513
405.885714,-4737.318029,9918.759623,-73698.386908
405.888253,888.247130,7550.100608,-75383.797003
405.890791,3997.112087,6809.894666,-74924.139704
405.893329,3997.112087,740.205942,-73238.729609
405.895867,20429.683999,0.000000,-71706.538613
405.898405,3849.070898,6513.812290,-75230.577904
405.900943,-8882.471304,1924.535449,-75996.673402
405.903481,-21169.889941,13471.748144,-77835.302597
405.906019,-26943.496289,30348.443622,-77375.645298
405.908557,16432.571912,13619.789333,-70940.443115
405.911095,52258.539505,-16432.571912,-69714.690318
405.913633,9474.636058,-1628.453072,-73391.948708
405.916171,-17172.777854,-8882.471304,-74617.701505
405.918709,7846.182985,3849.070898,-74004.825107
405.921247,-740.205942,4589.276840,-75690.235202
405.923786,-1924.535449,1480.411884,-75537.016103
405.926324,5181.441594,5329.482782,-73391.948708
405.928862,3701.029710,10658.965565,-74924.139704
405.931400,-6365.771101,-3849.070898,-76303.111601
405.933938,19541.436869,-1480.411884,-71706.538613
405.936476,-6217.729913,148.041188,-76915.987999
405.939029,-20873.807564,-11991.336260,-78294.959896
405.941582,16284.530724,-5773.606348,-72012.976812
405.944135,-1628.453072,1628.453072,-75843.454302
405.946688,-3701.029710,1628.453072,-76915.987999
405.949241,-12583.501014,5329.482782,-77222.426198
405.951794,-4145.153275,-4737.318029,-75230.577904
405.954347,4145.153275,-10214.842000,-73238.729609
405.956900,2812.782580,1628.453072,-72166.195912
405.959453,10510.924376,-7550.100608,-75537.016103
405.962006,12731.542202,-31088.649564,-74004.825107
405.964559,-10807.006753,26943.496289,-74311.263306
405.967113,-28275.866984,37010.297100,-81206.122788
405.969666,8882.471304,-41303.491564,-75077.358804
405.972219,27979.784608,-25315.043216,-67416.403824
405.974772,-2516.700203,19393.395680,-75843.454302
405.977325,-22058.137072,7550.100608,-83044.751983
405.979878,-8882.471304,-16432.571912,-78754.617194
405.982431,26351.331535,-18357.107362,-68795.375720
405.984984,-3849.070898,6809.894666,-75230.577904
405.987537,-24574.837274,8734.430116,-78294.959896
405.990090,22798.343014,-15248.242405,-71553.319513
405.992643,24278.754898,-6513.812290,-72625.853210
405.995196,-26647.413912,26203.290347,-78907.836294
405.997749,-8142.265362,19689.478057,-75996.673402
406.000302,17320.819043,-1776.494261,-71859.757712
406.002855,296.082377,3552.988522,-73391.948708
406.005408,-5477.523971,15988.448347,-75383.797003
406.007961,-3108.864956,11843.295072,-77988.521696
406.010514,-16580.613101,10955.047942,-79367.493593
406.013067,-5181.441594,13175.665768,-74311.263306
406.015620,11843.295072,-3404.947333,-70634.004916
406.018173,-8734.430116,11843.295072,-75537.016103
406.020726,-22650.301825,12583.501014,-78907.836294
406.023280,-3997.112087,28423.908173,-75690.235202
406.025833,3108.864956,19837.519246,-76149.892501
406.028386,10658.965565,7254.018232,-73085.510509
406.030939,10658.965565,-7105.977043,-71400.100414
406.033492,-1184.329507,6957.935855,-72932.291410
406.036045,-13767.830521,17024.736666,-76303.111601
406.038598,14359.995275,-6661.853478,-72932.291410
406.041162,16728.654289,-7105.977043,-72319.415011
406.043726,9622.677246,-444.123565,-74004.825107
406.046290,-16136.489536,12583.501014,-76303.111601
406.048855,11399.171507,14211.954086,-73085.510509
406.051419,-9030.512492,-5181.441594,-76762.768900
406.053983,-3701.029710,-17024.736666,-74924.139704
406.056547,13915.871710,-14359.995275,-71859.757712
406.059111,-8438.347739,6661.853478,-76303.111601
406.061675,296.082377,14359.995275,-75383.797003
406.064240,12435.459826,-3849.070898,-73085.510509
406.066804,12879.583391,-13027.624579,-73545.167808
406.069368,-296.082377,-7846.182985,-74924.139704
406.071932,-4441.235652,592.164754,-75843.454302
406.074496,-4145.153275,23982.672521,-76303.111601
406.077060,-3256.906145,13767.830521,-76456.330700
406.079625,12139.377449,-34345.555709,-74464.482406
406.082189,6513.812290,-29016.072926,-70940.443115
406.084753,-20281.642811,20873.807564,-75537.016103
406.087317,-13471.748144,6365.771101,-78907.836294
406.089881,20281.642811,-22946.384202,-72779.072310
406.092445,14063.912898,-4293.194464,-71706.538613
406.095010,-5329.482782,-4589.276840,-76915.987999
406.097574,-7698.141797,-2072.576638,-77528.864398
406.100138,-6217.729913,-5773.606348,-75690.235202
406.102702,-11991.336260,-6957.935855,-76609.549800
406.105266,9178.553681,2812.782580,-72166.195912
406.107831,18209.066173,444.123565,-74004.825107
406.110395,-10955.047942,12139.377449,-78448.178995
406.112959,-6365.771101,14656.077652,-74311.263306
406.115523,6957.935855,7402.059420,-72932.291410
406.118087,-3849.070898,1036.288319,-74617.701505
406.120651,148.041188,10807.006753,-73391.948708
406.123216,3997.112087,14211.954086,-76149.892501
406.125780,-11399.171507,13027.624579,-77069.207099
406.128344,7550.100608,-6365.771101,-74158.044206
406.130908,17912.983796,10066.800811,-69408.252119
406.133472,11843.295072,-22650.301825,-71246.881314
406.136036,29608.237680,444.123565,-70327.566716
406.138601,23834.631332,9918.759623,-69101.813920
406.141165,8586.388927,-2220.617826,-76149.892501
406.143738,27831.743419,-17320.819043,-70021.128517
406.146312,10214.842000,-6069.688724,-70174.347617
406.148885,9770.718434,444.123565,-73391.948708
406.151458,-6513.812290,-2516.700203,-76303.111601
406.154032,-8586.388927,9178.553681,-74770.920605
406.156605,9770.718434,6957.935855,-72625.853210
406.159178,2812.782580,6513.812290,-76609.549800
406.161752,-20429.683999,-444.123565,-77988.521696
406.164325,14508.036463,2072.576638,-71553.319513
406.166898,11843.295072,-11399.171507,-71859.757712
406.169472,-9770.718434,-6809.894666,-77222.426198
406.172045,7846.182985,1184.329507,-74464.482406
406.174619,3108.864956,-7994.224174,-75996.673402
406.177192,-5773.606348,2516.700203,-76149.892501
406.179765,-11251.130318,8290.306550,-76609.549800
406.182339,148.041188,-3701.029710,-74464.482406
406.184912,6513.812290,-19393.395680,-74464.482406
406.187485,5921.647536,5625.565159,-73085.510509
406.190059,7254.018232,1628.453072,-75383.797003
406.192632,17616.901420,-7550.100608,-73391.948708
406.195205,13915.871710,-11695.253884,-72779.072310
406.197779,-12435.459826,-2812.782580,-76915.987999
406.200352,-11399.171507,4145.153275,-76149.892501
406.202925,-3108.864956,-3701.029710,-77375.645298
406.205499,6217.729913,-4145.153275,-75690.235202
406.208072,3849.070898,444.123565,-75996.673402
406.210646,-15988.448347,14211.954086,-77069.207099
406.213219,-8734.430116,-13619.789333,-76149.892501
406.215792,21465.972318,-5477.523971,-68488.937521
406.218366,6513.812290,592.164754,-73391.948708
406.220939,-16728.654289,14952.160028,-78907.836294
406.223512,-888.247130,5477.523971,-74924.139704
406.226086,31532.773129,-444.123565,-70480.785816
406.228659,1924.535449,9178.553681,-72012.976812
406.231232,-5329.482782,10807.006753,-74158.044206
406.233806,-4293.194464,8734.430116,-74924.139704
406.236379,4293.194464,3552.988522,-75383.797003
406.238953,13767.830521,-6513.812290,-72625.853210
406.241526,22206.178260,-2220.617826,-71553.319513
406.244099,-8882.471304,27239.578666,-77988.521696
406.246680,-15100.201217,29164.114115,-77069.207099
406.249261,1184.329507,3552.988522,-73545.167808
406.251841,19097.313304,9030.512492,-71400.100414
406.254422,5181.441594,12583.501014,-74770.920605
406.257003,3108.864956,10066.800811,-73238.729609
406.259583,11991.336260,-12731.542202,-72319.415011
406.262164,23094.425390,-11251.130318,-71093.662214
406.264745,11251.130318,4589.276840,-71859.757712
406.267325,-10510.924376,11843.295072,-76915.987999
406.269906,6661.853478,296.082377,-74158.044206
406.272487,21910.095883,-10955.047942,-72166.195912
406.275067,-7994.224174,592.164754,-75843.454302
406.277648,4737.318029,8586.388927,-74770.920605
406.280229,-7402.059420,148.041188,-76456.330700
406.282809,-10807.006753,-17172.777854,-76762.768900
406.285390,13323.706956,-7698.141797,-72472.634111
406.287971,-3404.947333,2960.823768,-75690.235202
406.290551,-5329.482782,15840.407159,-75996.673402
406.293132,-11695.253884,11695.253884,-76456.330700
406.295713,444.123565,-6661.853478,-74924.139704
406.298293,8882.471304,-13619.789333,-72472.634111
406.300874,-1628.453072,-18653.189738,-73698.386908
406.303455,-9770.718434,-3256.906145,-75690.235202
406.306035,-15248.242405,15988.448347,-78141.740796
406.308616,-11251.130318,29460.196492,-79980.369991
406.311197,13619.789333,-9918.759623,-75230.577904
406.313777,23834.631332,-26795.455100,-67722.842023
406.316358,3849.070898,-2072.576638,-72319.415011
406.318939,-11695.253884,3997.112087,-78294.959896
406.321519,5625.565159,-12583.501014,-76456.330700
406.324100,1332.370696,-148.041188,-73851.606007
406.326681,-6365.771101,-4293.194464,-75230.577904
406.329261,-8882.471304,4293.194464,-73698.386908
406.331842,20577.725188,-3256.906145,-70634.004916
406.334423,4145.153275,-4293.194464,-75843.454302
406.337003,-23538.548956,26351.331535,-77682.083497
406.339584,12731.542202,22058.137072,-73851.606007
406.342165,10658.965565,-1036.288319,-74464.482406
406.344745,-444.123565,2220.617826,-74004.825107
406.347326,-3256.906145,12879.583391,-73391.948708
406.349875,-3552.988522,8586.388927,-76303.111601
406.352425,12583.501014,-8438.347739,-73238.729609
406.354974,25463.084405,-8882.471304,-72012.976812
406.357524,15396.283594,18209.066173,-74004.825107
406.360073,-5329.482782,-6069.688724,-75996.673402
406.362622,34493.596897,-25759.166782,-70174.347617
406.365172,2812.782580,36418.132346,-71553.319513
406.367721,-20577.725188,32717.102636,-80899.684589
406.370271,16284.530724,-11695.253884,-75230.577904
406.372820,11103.089130,-740.205942,-70634.004916
406.375370,5181.441594,12879.583391,-72012.976812
406.377919,11399.171507,740.205942,-74158.044206
406.380468,296.082377,-13619.789333,-75383.797003
406.383018,3256.906145,4885.359217,-72932.291410
406.385567,8290.306550,23834.631332,-73085.510509
406.388117,-3997.112087,1776.494261,-75690.235202
406.390666,-7105.977043,-23094.425390,-77528.864398
406.393216,19689.478057,-23538.548956,-70634.004916
406.395765,-5033.400406,2368.659014,-74617.701505
406.398314,-9178.553681,9474.636058,-75537.016103
406.400864,21762.054695,-17172.777854,-72932.291410
406.403413,9918.759623,-13915.871710,-73851.606007
406.405963,-10510.924376,444.123565,-76149.892501
406.408512,-6217.729913,-3997.112087,-76609.549800
406.411061,3404.947333,-12435.459826,-76609.549800
406.413611,740.205942,-15544.324782,-72625.853210
406.416160,-15692.365970,22354.219448,-76456.330700
406.418710,-12731.542202,15988.448347,-77528.864398
406.421259,-9474.636058,17616.901420,-78141.740796
406.423809,2220.617826,-12879.583391,-73391.948708
406.426358,13027.624579,-14656.077652,-71706.538613
406.428907,-888.247130,-2960.823768,-74617.701505
406.431457,-5625.565159,11103.089130,-77375.645298
406.434006,-9474.636058,2072.576638,-77069.207099
406.436556,9178.553681,-16876.695478,-71246.881314
406.439105,29312.155303,-3404.947333,-68642.156621
406.441654,-13915.871710,5181.441594,-77682.083497
406.444204,-15396.283594,-3256.906145,-77988.521696
406.446753,22946.384202,444.123565,-69101.813920
406.449303,25018.960840,-2812.782580,-71706.538613
406.451864,7698.141797,6069.688724,-73698.386908
406.454425,-4737.318029,13027.624579,-74770.920605
406.456986,3108.864956,-1628.453072,-73851.606007
406.459547,7105.977043,-888.247130,-73238.729609
406.462108,13027.624579,-3108.864956,-73085.510509
406.464669,-8142.265362,19541.436869,-76915.987999
406.467229,-18801.230927,26351.331535,-80286.808190
406.469790,-740.205942,22946.384202,-74311.263306
406.472351,-7698.141797,5773.606348,-75230.577904
406.474912,5773.606348,6957.935855,-74464.482406
406.477473,-8438.347739,6809.894666,-74924.139704
406.480034,-12583.501014,16728.654289,-77222.426198
406.482595,-9918.759623,24574.837274,-78294.959896
406.485156,-7254.018232,13915.871710,-75996.673402
406.487717,13471.748144,6365.771101,-71553.319513
406.490278,5625.565159,7402.059420,-73851.606007
406.492839,-7402.059420,12139.377449,-77222.426198
406.495400,11991.336260,14359.995275,-73851.606007
406.497961,10658.965565,7105.977043,-73851.606007
406.500522,5181.441594,-16876.695478,-74464.482406
406.503083,17764.942608,-16284.530724,-71093.662214
406.505644,-2664.741391,-7698.141797,-76456.330700
406.508205,4441.235652,1036.288319,-74617.701505
406.510766,7698.141797,-12879.583391,-73851.606007
406.513327,16136.489536,-14804.118840,-73851.606007
406.515888,-5329.482782,-11399.171507,-76303.111601
406.518449,-8586.388927,-6809.894666,-75996.673402
406.521010,9474.636058,4293.194464,-73545.167808
406.523571,4589.276840,17764.942608,-75230.577904
406.526132,-9326.594869,14063.912898,-76456.330700
406.528693,11843.295072,-26203.290347,-72166.195912
406.531254,26055.249158,-36862.255912,-68335.718422
406.533815,-296.082377,-3701.029710,-75537.016103
406.536376,-18505.148550,6809.894666,-80286.808190
406.538937,3997.112087,-9474.636058,-74924.139704
406.541498,18209.066173,-6365.771101,-71859.757712
406.544059,11991.336260,1628.453072,-72932.291410
406.546620,-24426.796086,8290.306550,-80440.027290
406.549181,-4885.359217,-13027.624579,-74311.263306
406.551742,25907.207970,-6365.771101,-68488.937521
406.554310,-5477.523971,14804.118840,-77375.645298
406.556880,-32717.102636,36418.132346,-80593.246390
406.559451,18949.272115,5625.565159,-73391.948708
406.562021,18653.189738,-6809.894666,-71400.100414
406.564592,-6217.729913,12139.377449,-74004.825107
406.567162,-5477.523971,8142.265362,-75537.016103
406.569732,3108.864956,-1776.494261,-75383.797003
406.572303,15988.448347,-4145.153275,-71246.881314
406.574873,29608.237680,10362.883188,-69867.909418
406.577443,-9474.636058,33013.185013,-76609.549800
406.580014,-24278.754898,29904.320057,-80286.808190
406.582584,22354.219448,-34049.473332,-71246.881314
406.585154,22946.384202,7105.977043,-68642.156621
406.587725,-29608.237680,42931.944636,-77835.302597
406.590295,-13915.871710,15840.407159,-78294.959896
406.592866,29608.237680,-28423.908173,-70634.004916
406.595436,13323.706956,-1036.288319,-70634.004916
406.598006,-19837.519246,28423.908173,-77222.426198
406.600577,-2516.700203,-148.041188,-76915.987999
406.603147,21021.848753,-17468.860231,-71859.757712
406.605717,-1332.370696,17468.860231,-73238.729609
406.608288,13471.748144,6809.894666,-71400.100414
406.610858,-15840.407159,1480.411884,-78601.398095
406.613428,-15988.448347,-16876.695478,-77222.426198
406.615999,21762.054695,-16136.489536,-71400.100414
406.618569,-11843.295072,6809.894666,-76456.330700
406.621140,-5625.565159,19393.395680,-75996.673402
406.623710,18949.272115,-5181.441594,-72472.634111
406.626280,14211.954086,-16136.489536,-73698.386908
406.628851,-2220.617826,-9622.677246,-74158.044206
406.631421,444.123565,10955.047942,-76303.111601
406.633991,1776.494261,8734.430116,-75383.797003
406.636562,8586.388927,-2664.741391,-77835.302597
406.639132,12287.418637,-4589.276840,-74004.825107
406.641702,13175.665768,-21317.931130,-73545.167808
406.644273,4145.153275,-3108.864956,-73545.167808
406.646843,-3256.906145,-4737.318029,-76303.111601
406.649414,4885.359217,-3552.988522,-74924.139704
406.651984,-3997.112087,1332.370696,-74004.825107
406.654554,6661.853478,-5625.565159,-73238.729609
406.657096,22058.137072,-5625.565159,-72319.415011
406.659638,-14211.954086,-1924.535449,-77682.083497
406.662180,-11399.171507,-1332.370696,-77222.426198
406.664722,22206.178260,4885.359217,-69408.252119
406.667264,16136.489536,-1036.288319,-73851.606007
406.669806,-12287.418637,11695.253884,-74464.482406
406.672348,-6217.729913,13323.706956,-74311.263306
406.674890,5033.400406,-1628.453072,-73851.606007
406.677432,7994.224174,-3108.864956,-73391.948708
406.679974,9326.594869,2368.659014,-74464.482406
406.682516,-15100.201217,24278.754898,-78141.740796
406.685058,-11695.253884,-9622.677246,-75690.235202
406.687600,9770.718434,148.041188,-69867.909418
406.690142,-18209.066173,10955.047942,-76762.768900
406.692684,-16580.613101,5181.441594,-78907.836294
406.695226,-10066.800811,22354.219448,-74311.263306
406.697768,-9622.677246,15988.448347,-77528.864398
406.700310,8882.471304,15988.448347,-74464.482406
406.702852,10510.924376,1628.453072,-73851.606007
406.705393,-6513.812290,8142.265362,-75077.358804
406.707935,-6365.771101,15692.365970,-76303.111601
406.710477,4589.276840,592.164754,-75537.016103
406.713019,1480.411884,3849.070898,-74311.263306
406.715561,9178.553681,15988.448347,-73545.167808
406.718103,-23686.590144,1480.411884,-79061.055394
406.720645,-6513.812290,-17912.983796,-75077.358804
406.723187,25018.960840,-23686.590144,-70021.128517
406.725729,-11103.089130,9030.512492,-76149.892501
406.728271,-3108.864956,14508.036463,-75230.577904
406.730813,21910.095883,-11251.130318,-71553.319513
406.733355,13767.830521,-12287.418637,-73085.510509
406.735897,5329.482782,-16876.695478,-72932.291410
406.738439,6809.894666,10214.842000,-74770.920605
406.740981,17912.983796,-10658.965565,-74924.139704
406.743523,24278.754898,-22798.343014,-71859.757712
406.746065,-1776.494261,4441.235652,-73238.729609
406.748607,-30496.484810,22354.219448,-79367.493593
406.751149,-8290.306550,-15248.242405,-78448.178995
406.753691,20577.725188,-20725.766376,-70480.785816
406.756233,4441.235652,9770.718434,-74924.139704
406.758787,-31532.773129,21910.095883,-81665.780087
406.761342,-4885.359217,-20725.766376,-75690.235202
406.763897,9770.718434,-21465.972318,-72319.415011
406.766452,22650.301825,-3701.029710,-68182.499322
406.769007,-11399.171507,21169.889941,-77988.521696
406.771561,-22354.219448,21465.972318,-79520.712692
406.774116,20133.601622,7402.059420,-73085.510509
406.776671,8290.306550,7254.018232,-72472.634111
406.779226,-2664.741391,14063.912898,-73851.606007
406.781781,2220.617826,740.205942,-74464.482406
406.784335,4885.359217,-1480.411884,-73545.167808
406.786890,11991.336260,1036.288319,-74004.825107
406.789445,-7698.141797,28127.825796,-75996.673402
406.792000,-10807.006753,33161.226202,-76609.549800
406.794554,-1036.288319,23094.425390,-76456.330700
406.797109,-26055.249158,148.041188,-78294.959896
406.799664,-14804.118840,10362.883188,-77988.521696
406.802219,-19837.519246,23390.507767,-77528.864398
406.804774,-9622.677246,32569.061448,-78294.959896
406.807328,-6957.935855,17024.736666,-74311.263306
406.809883,20873.807564,5033.400406,-69867.909418
406.812438,11991.336260,296.082377,-72166.195912
406.814993,-5477.523971,3701.029710,-75230.577904
406.817548,14508.036463,7254.018232,-73238.729609
406.820102,3849.070898,2516.700203,-74770.920605
406.822657,11399.171507,-7698.141797,-72472.634111
406.825212,11547.212695,-14804.118840,-71706.538613
406.827767,-1036.288319,-7550.100608,-74464.482406
406.830321,-888.247130,3404.947333,-75537.016103
406.832876,6661.853478,-9622.677246,-75077.358804
406.835431,-2664.741391,-4589.276840,-75843.454302
406.837986,-13915.871710,10955.047942,-76303.111601
406.840541,740.205942,-8734.430116,-75690.235202
406.843095,6069.688724,-5181.441594,-73851.606007
406.845650,10362.883188,-6957.935855,-74158.044206
406.848205,16432.571912,-3849.070898,-72779.072310
406.850760,5181.441594,0.000000,-74617.701505
406.853315,-10807.006753,-1332.370696,-77528.864398
406.855869,-12287.418637,-5329.482782,-77682.083497
406.858424,-6661.853478,-4293.194464,-77222.426198
406.860989,8882.471304,2072.576638,-74617.701505
406.863554,-6365.771101,8438.347739,-75383.797003
406.866119,1184.329507,148.041188,-75077.358804
406.868684,21021.848753,-7105.977043,-71400.100414
406.871249,-2368.659014,-6957.935855,-75843.454302
406.873814,-10214.842000,-7105.977043,-76456.330700
406.876380,14211.954086,2368.659014,-71400.100414
406.878945,18801.230927,2220.617826,-72625.853210
406.881510,-11843.295072,22650.301825,-76915.987999
406.884075,-3404.947333,11843.295072,-75077.358804
406.886640,6069.688724,-3552.988522,-74158.044206
406.889205,4293.194464,-1924.535449,-73391.948708
406.891770,7994.224174,16728.654289,-73698.386908
406.894335,-7550.100608,8142.265362,-76149.892501
406.896900,16728.654289,-5329.482782,-71400.100414
406.899465,29016.072926,-19097.313304,-69714.690318
406.902030,-2072.576638,-1332.370696,-74004.825107
406.904595,-15692.365970,296.082377,-77835.302597
406.907160,-8142.265362,16728.654289,-76303.111601
406.909725,-8438.347739,26499.372724,-77528.864398
406.912290,-8142.265362,27387.619854,-76149.892501
406.914855,10807.006753,8586.388927,-71553.319513
406.917420,7994.224174,1924.535449,-72932.291410
406.919985,-5921.647536,11695.253884,-74924.139704
406.922550,-4589.276840,25611.125593,-75843.454302
406.925116,-1924.535449,3404.947333,-75537.016103
406.927681,17764.942608,-14656.077652,-71246.881314
406.930246,11695.253884,-5921.647536,-71859.757712
406.932811,-23686.590144,-2516.700203,-79673.931792
406.935376,3256.906145,-1332.370696,-75230.577904
406.937941,13471.748144,-10066.800811,-72472.634111
406.940506,-10362.883188,18801.230927,-76303.111601
406.943071,-9918.759623,8586.388927,-75843.454302
406.945636,10807.006753,-15544.324782,-72779.072310
406.948201,7994.224174,-26943.496289,-74158.044206
406.950766,12879.583391,-21021.848753,-72625.853210
406.953331,6217.729913,6809.894666,-74770.920605
406.955896,-11547.212695,22946.384202,-77988.521696
406.958461,17764.942608,-20133.601622,-75383.797003
406.961026,25611.125593,-28127.825796,-67876.061123
406.963565,-6217.729913,4737.318029,-74924.139704
406.966103,-15100.201217,10658.965565,-80133.589091
406.968641,-14804.118840,1628.453072,-76762.768900
406.971179,10510.924376,-8142.265362,-71706.538613
406.973718,23538.548956,1184.329507,-70174.347617
406.976256,-18209.066173,1776.494261,-78907.836294
406.978794,-12287.418637,-5181.441594,-77069.207099
406.981333,19985.560434,4441.235652,-69408.252119
406.983871,29756.278868,6069.688724,-70634.004916
406.986409,4293.194464,7994.224174,-74311.263306
406.988947,-1332.370696,12139.377449,-74770.920605
406.991486,1184.329507,592.164754,-75077.358804
406.994024,888.247130,-296.082377,-74311.263306
406.996562,6957.935855,12879.583391,-73238.729609
406.999101,-3256.906145,8438.347739,-76762.768900
407.001639,11695.253884,-22650.301825,-72166.195912
407.004177,-444.123565,5921.647536,-73085.510509
407.006715,-39823.079680,47817.303853,-81206.122788
407.009254,-20873.807564,46781.015534,-78907.836294
407.011792,12287.418637,-592.164754,-72625.853210
407.014330,9770.718434,2516.700203,-74158.044206
407.016869,21910.095883,1924.535449,-69408.252119
407.019407,-8882.471304,25907.207970,-75996.673402
407.021945,-11843.295072,5625.565159,-77528.864398
407.024483,14063.912898,-12879.583391,-72625.853210
407.027022,17616.901420,11991.336260,-70634.004916
407.029560,-3256.906145,29756.278868,-78141.740796
407.032098,-19393.395680,-14508.036463,-78294.959896
407.034637,27979.784608,-28571.949361,-68029.280222
407.037175,12583.501014,-6217.729913,-72932.291410
407.039713,-19689.478057,12583.501014,-78907.836294
407.042252,11251.130318,-13027.624579,-74004.825107
407.044790,25315.043216,-18061.024985,-72166.195912
407.047328,4145.153275,-11103.089130,-73851.606007
407.049866,-14063.912898,-8438.347739,-77835.302597
407.052405,-4737.318029,-22354.219448,-75077.358804
407.054943,8882.471304,-17912.983796,-73545.167808
407.057481,-14211.954086,38342.667796,-77375.645298
407.060020,-8438.347739,-11547.212695,-79520.712692
407.062558,33309.267390,-35825.967593,-69714.690318
407.065109,5329.482782,-6661.853478,-72012.976812
407.067661,-19985.560434,17616.901420,-79827.150892
407.070213,-888.247130,-20133.601622,-75537.016103
407.072764,28571.949361,-7994.224174,-70327.566716
407.075316,32865.143825,-4293.194464,-70634.004916
407.077868,-29608.237680,8290.306550,-79827.150892
407.080419,-7402.059420,-11843.295072,-74770.920605
407.082971,37898.544230,-10066.800811,-67876.061123
407.085523,-4737.318029,15840.407159,-75537.016103
407.088074,-20133.601622,26499.372724,-78907.836294
407.090626,3701.029710,3997.112087,-75230.577904
407.093177,3997.112087,-888.247130,-74004.825107
407.095729,1332.370696,11991.336260,-72779.072310
407.098281,-4589.276840,10658.965565,-75996.673402
407.100832,2220.617826,-2516.700203,-76303.111601
407.103384,-11103.089130,1184.329507,-74158.044206
407.105936,3997.112087,-1184.329507,-74158.044206
407.108487,11843.295072,-4885.359217,-70940.443115
407.111039,3997.112087,-6957.935855,-74770.920605
407.113591,-13767.830521,11991.336260,-75996.673402
407.116142,-7105.977043,10214.842000,-78448.178995
407.118694,-13323.706956,20429.683999,-76303.111601
407.121245,-3849.070898,21762.054695,-74158.044206
407.123797,7105.977043,10362.883188,-73085.510509
407.126349,-6957.935855,1924.535449,-76303.111601
407.128900,7846.182985,16876.695478,-73238.729609
407.131452,1184.329507,5625.565159,-75843.454302
407.134004,11991.336260,-10807.006753,-72932.291410
407.136555,10510.924376,-8290.306550,-72932.291410
407.139107,-2960.823768,-2072.576638,-74924.139704
407.141659,-8142.265362,7846.182985,-76915.987999
407.144210,12287.418637,-15544.324782,-74464.482406
407.146762,-1776.494261,1184.329507,-75537.016103
407.149313,-20577.725188,18061.024985,-77069.207099
407.151865,888.247130,-2960.823768,-74770.920605
407.154417,15692.365970,-1332.370696,-73698.386908
407.156968,6217.729913,-592.164754,-74004.825107
407.159520,8438.347739,444.123565,-73698.386908
407.162072,13323.706956,4441.235652,-72932.291410
407.164623,18357.107362,-23242.466579,-73238.729609
407.167152,15840.407159,-20873.807564,-73085.510509
407.169680,7402.059420,-10214.842000,-72932.291410
407.172208,3108.864956,-7698.141797,-74311.263306
407.174737,21762.054695,-7254.018232,-71553.319513
407.177265,22798.343014,-5477.523971,-73698.386908
407.179794,-18505.148550,-8438.347739,-79214.274493
407.182322,4293.194464,-16284.530724,-72779.072310
407.184850,28868.031738,-4145.153275,-68948.594820
407.187379,-10807.006753,23982.672521,-76456.330700
407.189907,-9030.512492,18209.066173,-77835.302597
407.192435,5921.647536,4293.194464,-74617.701505
407.194964,592.164754,1924.535449,-74004.825107
407.197492,1036.288319,9030.512492,-73851.606007
407.200021,1924.535449,7994.224174,-74617.701505
407.202549,1332.370696,-3108.864956,-77069.207099
407.205077,-14508.036463,-15100.201217,-76149.892501
407.207606,-16728.654289,10955.047942,-76149.892501
407.210134,-14656.077652,20429.683999,-75690.235202
407.212662,4293.194464,7994.224174,-75690.235202
407.215191,27683.702231,-2664.741391,-71246.881314
407.217719,30792.567187,-1480.411884,-69561.471218
407.220248,1628.453072,22354.219448,-76149.892501
407.222776,-22502.260637,10955.047942,-79214.274493
407.225304,4145.153275,-3108.864956,-72779.072310
407.227833,11843.295072,3701.029710,-71553.319513
407.230361,4145.153275,14952.160028,-72472.634111
407.232889,-5033.400406,25759.166782,-78601.398095
407.235418,-19837.519246,-13767.830521,-78907.836294
407.237946,25018.960840,-26499.372724,-67876.061123
407.240475,13175.665768,-9770.718434,-71859.757712
407.243003,-21317.931130,11991.336260,-78141.740796
407.245531,9918.759623,-14656.077652,-73698.386908
407.248060,12435.459826,-9030.512492,-74311.263306
407.250588,-18209.066173,15544.324782,-77375.645298
407.253117,-10362.883188,-592.164754,-76149.892501
407.255645,13471.748144,-2368.659014,-73238.729609
407.258173,26351.331535,-23242.466579,-71859.757712
407.260702,23538.548956,-30644.525999,-71706.538613
407.263230,32865.143825,-22502.260637,-68642.156621
407.265758,14952.160028,-19393.395680,-70021.128517
407.268302,-3552.988522,-6809.894666,-75537.016103
407.270846,-2368.659014,-8142.265362,-77375.645298
407.273389,-9178.553681,-2516.700203,-75843.454302
407.275933,-9326.594869,2664.741391,-75690.235202
407.278477,15396.283594,6661.853478,-72625.853210
407.281021,740.205942,-3404.947333,-76303.111601
407.283564,-18357.107362,-2072.576638,-78141.740796
407.286108,6661.853478,2664.741391,-71706.538613
407.288652,23242.466579,-444.123565,-71706.538613
407.291195,-4737.318029,18653.189738,-73698.386908
407.293739,888.247130,11399.171507,-74924.139704
407.296283,-740.205942,2664.741391,-75230.577904
407.298826,444.123565,1924.535449,-74311.263306
407.301370,11399.171507,4441.235652,-71553.319513
407.303914,10807.006753,-14656.077652,-72779.072310
407.306457,10955.047942,-37158.338288,-75230.577904
407.309001,-21762.054695,25018.960840,-76915.987999
407.311545,-35974.008781,20725.766376,-81972.218286
407.314088,18209.066173,-10362.883188,-71553.319513
407.316632,25907.207970,1628.453072,-68795.375720
407.319176,-19393.395680,46484.933158,-78141.740796
407.321719,-23242.466579,23982.672521,-80899.684589
407.324263,13323.706956,0.000000,-77835.302597
407.326807,15100.201217,-11547.212695,-70634.004916
407.329351,9474.636058,21465.972318,-72779.072310
407.331894,-22502.260637,15396.283594,-79980.369991
407.334438,9770.718434,-12287.418637,-73391.948708
407.336982,22650.301825,-14508.036463,-69408.252119
407.339525,-17616.901420,0.000000,-78601.398095
407.342069,-1628.453072,1776.494261,-76149.892501
407.344613,6217.729913,-11251.130318,-73698.386908
407.347156,-5181.441594,21021.848753,-74311.263306
407.349713,4737.318029,10955.047942,-73238.729609
407.352270,12731.542202,-17764.942608,-74770.920605
407.354826,-1332.370696,-31384.731941,-75077.358804
407.357383,-15544.324782,13027.624579,-74924.139704
407.359939,-10658.965565,21317.931130,-77375.645298
407.362496,5181.441594,3256.906145,-75690.235202
407.365053,24870.919651,-30644.525999,-71859.757712
407.367609,16284.530724,-9770.718434,-70787.224015
407.370166,-9178.553681,1036.288319,-77682.083497
407.372723,-13619.789333,-4737.318029,-77375.645298
407.375279,19837.519246,-9622.677246,-70021.128517
407.377836,31088.649564,592.164754,-72166.195912
407.380392,-27683.702231,5477.523971,-81972.218286
407.382949,-7994.224174,-12139.377449,-74617.701505
407.385506,32124.937883,-6365.771101,-66956.746525
407.388062,28868.031738,-2368.659014,-70174.347617
407.390619,-5033.400406,19689.478057,-76149.892501
407.393175,-4589.276840,14211.954086,-76609.549800
407.395732,3108.864956,-444.123565,-75383.797003
407.398289,5329.482782,-3552.988522,-72779.072310
407.400845,5033.400406,5477.523971,-73545.167808
407.403402,-3552.988522,25759.166782,-76149.892501
407.405959,-24870.919651,41747.615129,-79214.274493
407.408515,-6365.771101,10658.965565,-75537.016103
407.411072,28423.908173,-6069.688724,-68335.718422
407.413628,27683.702231,-18653.189738,-70174.347617
407.416185,25463.084405,-8438.347739,-70480.785816
407.418742,16432.571912,-148.041188,-72779.072310
407.421298,-18653.189738,12287.418637,-76915.987999
407.423855,3108.864956,4441.235652,-73698.386908
407.426411,18505.148550,-5921.647536,-71553.319513
407.428968,5329.482782,11695.253884,-75230.577904
407.431525,-15544.324782,4145.153275,-77222.426198
407.434081,21614.013506,-4293.194464,-70327.566716
407.436638,15248.242405,-5773.606348,-72625.853210
407.439195,-20281.642811,-10807.006753,-79827.150892
407.441751,4589.276840,-9178.553681,-74158.044206
407.444308,8734.430116,-3256.906145,-73085.510509
407.446864,-6069.688724,19393.395680,-75690.235202
407.449421,5773.606348,-3404.947333,-76762.768900
407.451987,9770.718434,-3701.029710,-72166.195912
407.454553,8586.388927,4293.194464,-74617.701505
407.457119,-6809.894666,6957.935855,-75383.797003
407.459685,9474.636058,-7254.018232,-73698.386908
407.462251,9030.512492,-6661.853478,-73085.510509
407.464817,-12435.459826,5329.482782,-77222.426198
407.467384,-9178.553681,-8882.471304,-77835.302597
407.469950,11251.130318,-17320.819043,-70634.004916
407.472516,-2220.617826,7846.182985,-73391.948708
407.475082,-12731.542202,2812.782580,-77682.083497
407.477648,21465.972318,-7994.224174,-72625.853210
407.480214,7550.100608,-4737.318029,-72779.072310
407.482780,-3997.112087,3552.988522,-76149.892501
407.485346,-11251.130318,11991.336260,-75383.797003
407.487912,23834.631332,4885.359217,-71706.538613
407.490478,8438.347739,7846.182985,-74464.482406
407.493044,888.247130,11103.089130,-74924.139704
407.495610,888.247130,4145.153275,-75383.797003
407.498176,1776.494261,-1924.535449,-74464.482406
407.500742,6217.729913,-148.041188,-73545.167808
407.503308,3701.029710,21169.889941,-74158.044206
407.505875,-19097.313304,35233.802839,-79520.712692
407.508441,9622.677246,-2812.782580,-73545.167808
407.511007,32421.020260,-31976.896694,-66956.746525
407.513573,24722.878463,-12879.583391,-70174.347617
407.516139,-9918.759623,28868.031738,-74158.044206
407.518705,-6365.771101,17172.777854,-77069.207099
407.521271,8586.388927,-9030.512492,-73851.606007
407.523837,10362.883188,3552.988522,-71553.319513
407.526403,-8438.347739,19245.354492,-75843.454302
407.528969,-6069.688724,19541.436869,-76149.892501
407.531535,9474.636058,6957.935855,-75077.358804
407.534101,-2072.576638,-16284.530724,-75383.797003
407.536667,13619.789333,-9474.636058,-71246.881314
407.539233,2812.782580,-7846.182985,-74158.044206
407.541800,-3849.070898,-296.082377,-75690.235202
407.544366,8734.430116,-9918.759623,-73698.386908
407.546932,13027.624579,-14952.160028,-75383.797003
407.549498,-15544.324782,1628.453072,-77222.426198
407.552064,-6217.729913,7698.141797,-76149.892501
407.554637,2072.576638,21317.931130,-73698.386908
407.557211,-5033.400406,9474.636058,-74924.139704
407.559785,11991.336260,18061.024985,-72779.072310
407.562358,1036.288319,-5773.606348,-76456.330700
407.564932,2072.576638,-21317.931130,-75690.235202
407.567506,11991.336260,-15988.448347,-70940.443115
407.570080,9030.512492,-15840.407159,-70940.443115
407.572654,21614.013506,-11103.089130,-72472.634111
407.575228,28868.031738,-9622.677246,-74004.825107
407.577802,-13323.706956,-9178.553681,-79980.369991
407.580375,-4145.153275,-7550.100608,-73545.167808
407.582949,28275.866984,1184.329507,-68335.718422
407.585523,-5181.441594,14211.954086,-75230.577904
407.588097,-8734.430116,20725.766376,-76456.330700
407.590671,5773.606348,5921.647536,-75690.235202
407.593245,4441.235652,3997.112087,-75077.358804
407.595818,1480.411884,2516.700203,-74464.482406
407.598392,296.082377,6069.688724,-75077.358804
407.600966,3997.112087,15248.242405,-73238.729609
407.603540,14952.160028,7698.141797,-72472.634111
407.606114,5033.400406,25018.960840,-74158.044206
407.608688,-18801.230927,15840.407159,-79827.150892
407.611261,3849.070898,-7254.018232,-76762.768900
407.613835,13471.748144,-6217.729913,-66956.746525
407.616409,29608.237680,21614.013506,-66803.527426
407.618983,-592.164754,9178.553681,-76456.330700
407.621557,-6513.812290,-11103.089130,-75843.454302
407.624131,9178.553681,-5181.441594,-70634.004916
407.626704,3256.906145,25315.043216,-73085.510509
407.629278,-7105.977043,3552.988522,-77682.083497
407.631852,13767.830521,-18653.189738,-72779.072310
407.634426,16728.654289,-12879.583391,-70021.128517
407.637000,7254.018232,-6661.853478,-71706.538613
407.639574,-8290.306550,11399.171507,-77375.645298
407.642148,5625.565159,-12731.542202,-75843.454302
407.644721,-2368.659014,4441.235652,-74464.482406
407.647295,-10510.924376,13915.871710,-74770.920605
407.649869,5625.565159,-21762.054695,-75537.016103
407.652443,2516.700203,-31384.731941,-74004.825107
407.655017,4737.318029,3108.864956,-71859.757712
407.657597,-7254.018232,14656.077652,-76149.892501
407.660177,-13323.706956,6365.771101,-79214.274493
407.662757,-4145.153275,-11251.130318,-76915.987999
407.665337,2664.741391,-6365.771101,-73545.167808
407.667917,3849.070898,-10658.965565,-71553.319513
407.670498,17320.819043,1332.370696,-72012.976812
407.673078,18505.148550,-3256.906145,-75077.358804
407.675658,-26203.290347,-2960.823768,-80746.465489
407.678238,3404.947333,-2220.617826,-72625.853210
407.680818,30496.484810,-7846.182985,-70174.347617
407.683398,-18505.148550,23390.507767,-77528.864398
407.685979,-9918.759623,20873.807564,-76149.892501
407.688559,11991.336260,6957.935855,-73851.606007
407.691139,4589.276840,-148.041188,-75077.358804
407.693719,-592.164754,3997.112087,-74770.920605
407.696299,-592.164754,11695.253884,-75383.797003
407.698879,2516.700203,2072.576638,-73851.606007
407.701459,17172.777854,9178.553681,-72625.853210
407.704040,8438.347739,-7994.224174,-75230.577904
407.706620,-4441.235652,6069.688724,-74924.139704
407.709200,2220.617826,3552.988522,-75383.797003
407.711780,-17024.736666,21021.848753,-77528.864398
407.714360,-5625.565159,11103.089130,-74770.920605
407.716940,19245.354492,2368.659014,-70787.224015
407.719520,3849.070898,9918.759623,-74158.044206
407.722101,-8734.430116,6365.771101,-76456.330700
407.724681,9326.594869,13471.748144,-73238.729609
407.727261,5477.523971,1480.411884,-74158.044206
407.729841,9178.553681,-17024.736666,-72779.072310
407.732421,15100.201217,-7402.059420,-70480.785816
407.735001,4293.194464,-7550.100608,-73698.386908
407.737582,-10362.883188,5625.565159,-76762.768900
407.740162,8142.265362,-12139.377449,-73698.386908
407.742742,296.082377,3108.864956,-74464.482406
407.745322,-20873.807564,18653.189738,-77375.645298
407.747902,2812.782580,-20873.807564,-76149.892501
407.750482,2812.782580,-27831.743419,-72779.072310
407.753062,-13767.830521,15692.365970,-75690.235202
407.755643,-16136.489536,12287.418637,-78141.740796
407.758223,20725.766376,-17764.942608,-75077.358804
407.760807,31828.855506,-25315.043216,-68795.375720
407.763392,-1924.535449,-24722.878463,-69867.909418
407.765976,-21910.095883,11251.130318,-78754.617194
407.768560,-23242.466579,2960.823768,-78448.178995
407.771145,34789.679274,-11547.212695,-68948.594820
407.773729,3701.029710,-5181.441594,-76609.549800
407.776314,-31532.773129,13027.624579,-80593.246390
407.778898,11399.171507,-2664.741391,-71400.100414
407.781483,21910.095883,-3701.029710,-70634.004916
407.784067,-5033.400406,21021.848753,-75077.358804
407.786651,-9030.512492,13767.830521,-77835.302597
407.789236,3552.988522,-4441.235652,-75843.454302
407.791820,10807.006753,1184.329507,-71859.757712
407.794405,1776.494261,5773.606348,-74924.139704
407.796989,1480.411884,28571.949361,-75537.016103
407.799574,6217.729913,12731.542202,-75383.797003
407.802158,7550.100608,-2368.659014,-75230.577904
407.804742,-1628.453072,9326.594869,-75230.577904
407.807327,4589.276840,2072.576638,-72625.853210
407.809911,30200.402434,5329.482782,-68335.718422
407.812496,11103.089130,7254.018232,-74924.139704
407.815080,-15692.365970,1036.288319,-78294.959896
407.817665,2072.576638,4441.235652,-71553.319513
407.820249,19097.313304,2664.741391,-71400.100414
407.822833,-10510.924376,7698.141797,-76609.549800
407.825418,-888.247130,16876.695478,-75843.454302
407.828002,-11251.130318,-5181.441594,-77988.521696
407.830587,-13175.665768,-7846.182985,-77222.426198
407.833171,18949.272115,-21317.931130,-72166.195912
407.835755,-4441.235652,1924.535449,-74004.825107
407.838340,-740.205942,11991.336260,-72625.853210
407.840924,27683.702231,-16728.654289,-72012.976812
407.843509,1628.453072,-24722.878463,-77222.426198
407.846093,-9178.553681,-19837.519246,-75230.577904
407.848678,12583.501014,-24130.713709,-71706.538613
407.851262,4737.318029,2368.659014,-72779.072310
407.853846,1776.494261,-10807.006753,-76303.111601
407.856431,11695.253884,-10658.965565,-75996.673402
407.859015,-2960.823768,148.041188,-70327.566716
407.861600,-2072.576638,-7402.059420,-74004.825107
407.864187,13027.624579,-6069.688724,-72625.853210
407.866775,16876.695478,-9178.553681,-75077.358804
407.869362,-20577.725188,-2072.576638,-79214.274493
407.871949,-2368.659014,444.123565,-74158.044206
407.874537,19985.560434,1924.535449,-72166.195912
407.877124,-18357.107362,27387.619854,-76762.768900
407.879712,-3997.112087,15396.283594,-75383.797003
407.882299,5477.523971,2960.823768,-74464.482406
407.884887,3849.070898,10066.800811,-74158.044206
407.887474,-2220.617826,5625.565159,-76303.111601
407.890062,-2220.617826,14359.995275,-76303.111601
407.892649,-3701.029710,-5181.441594,-76149.892501
407.895236,-2664.741391,2072.576638,-73851.606007
407.897824,-11547.212695,30052.361245,-73698.386908
407.900411,-3701.029710,26647.413912,-77682.083497
407.902999,-14952.160028,-5181.441594,-81972.218286
407.905586,21317.931130,-15248.242405,-67876.061123
407.908174,29904.320057,19689.478057,-67109.965625
407.910761,-6661.853478,20725.766376,-77835.302597
407.913348,-4145.153275,-9030.512492,-76915.987999
407.915936,17024.736666,-9622.677246,-70940.443115
407.918523,-3108.864956,21169.889941,-72472.634111
407.921111,-6809.894666,23242.466579,-77988.521696
407.923698,-23538.548956,-2516.700203,-81818.999186
407.926286,-7402.059420,-16284.530724,-75843.454302
407.928873,26647.413912,-25907.207970,-69561.471218
407.931461,-9474.636058,9770.718434,-74617.701505
407.934048,-444.123565,-3701.029710,-74617.701505
407.936635,16432.571912,-17764.942608,-73085.510509
407.939223,-15396.283594,11399.171507,-76149.892501
407.941810,-12879.583391,6513.812290,-78141.740796
407.944398,-8586.388927,8586.388927,-76915.987999
407.946985,-2220.617826,6957.935855,-75230.577904
407.949573,14952.160028,2960.823768,-71553.319513
407.952160,15692.365970,-14063.912898,-72932.291410
407.954747,3404.947333,-1036.288319,-73851.606007
407.957335,-3997.112087,-12287.418637,-74158.044206
407.959922,21021.848753,-4293.194464,-70480.785816
407.962510,18653.189738,-7846.182985,-75077.358804
407.965097,-22798.343014,-1036.288319,-78448.178995
407.967687,12287.418637,-4737.318029,-71859.757712
407.970277,24722.878463,-6365.771101,-72625.853210
407.972866,-19689.478057,29016.072926,-77375.645298
407.975456,3997.112087,14211.954086,-74464.482406
407.978046,7550.100608,592.164754,-72932.291410
407.980636,-592.164754,9326.594869,-74004.825107
407.983225,592.164754,7698.141797,-75077.358804
407.985815,-3256.906145,2960.823768,-76762.768900
407.988405,-1184.329507,11695.253884,-76762.768900
407.990995,-7402.059420,22058.137072,-73698.386908
407.993584,-10362.883188,11399.171507,-76149.892501
407.996174,5033.400406,7698.141797,-74924.139704
407.998764,-9178.553681,14656.077652,-74004.825107
408.001353,-8882.471304,18061.024985,-76149.892501
408.003943,7254.018232,5625.565159,-72779.072310
408.006533,11103.089130,3701.029710,-72625.853210
408.009123,5477.523971,7254.018232,-75230.577904
408.011712,2368.659014,-1924.535449,-74770.920605
408.014302,1628.453072,5477.523971,-72319.415011
408.016892,7254.018232,1924.535449,-70634.004916
408.019482,-8586.388927,-2812.782580,-78141.740796
408.022071,-15692.365970,-11843.295072,-78141.740796
408.024661,17468.860231,-21762.054695,-72012.976812
408.027251,-1628.453072,3849.070898,-74158.044206
408.029840,-296.082377,2368.659014,-73238.729609
408.032430,20873.807564,-17912.983796,-72166.195912
408.035020,-5329.482782,3108.864956,-74311.263306
408.037610,-13323.706956,15988.448347,-79061.055394
408.040199,-6069.688724,9622.677246,-77069.207099
408.042789,4885.359217,-20133.601622,-74770.920605
408.045379,6809.894666,-21762.054695,-70787.224015
408.047969,-19985.560434,11547.212695,-78294.959896
408.050558,-15396.283594,5773.606348,-79214.274493
408.053148,-23982.672521,6809.894666,-79980.369991
408.055738,1036.288319,-8438.347739,-73545.167808
408.058327,35085.761651,3404.947333,-68642.156621
408.060917,-14359.995275,6809.894666,-79061.055394
408.063507,-20133.601622,-592.164754,-79214.274493
408.066097,24426.796086,-8734.430116,-69714.690318
408.068686,10955.047942,4737.318029,-72319.415011
408.071245,-11843.295072,28275.866984,-76456.330700
408.073804,-592.164754,8882.471304,-75843.454302
408.076362,6069.688724,-3404.947333,-73238.729609
408.078921,7254.018232,5033.400406,-72932.291410
408.081479,9918.759623,15692.365970,-72319.415011
408.084038,-5625.565159,5773.606348,-77069.207099
408.086596,-22650.301825,22798.343014,-76762.768900
408.089155,-17912.983796,35677.926404,-76609.549800
408.091714,6513.812290,17468.860231,-74770.920605
408.094272,35825.967593,-12287.418637,-67263.184724
408.096831,25315.043216,-1924.535449,-69714.690318
408.099389,-10510.924376,15396.283594,-76303.111601
408.101948,-5181.441594,1924.535449,-75537.016103
408.104507,14952.160028,-10658.965565,-71859.757712
408.107065,13175.665768,17320.819043,-71400.100414
408.109624,-14211.954086,6365.771101,-77222.426198
408.112182,-4441.235652,-17172.777854,-75230.577904
408.114741,25759.166782,-24722.878463,-70021.128517
408.117299,-296.082377,-4441.235652,-76149.892501
408.119858,-7402.059420,7550.100608,-77528.864398
408.122417,9622.677246,-8290.306550,-74158.044206
408.124975,-6661.853478,14063.912898,-74464.482406
408.127534,-2812.782580,10362.883188,-72779.072310
408.130092,16728.654289,-22206.178260,-73698.386908
408.132651,-8734.430116,-15100.201217,-77069.207099
408.135210,-29756.278868,13323.706956,-78907.836294
408.137768,-23390.507767,16432.571912,-78601.398095
408.140327,-14063.912898,9622.677246,-74617.701505
408.142885,2368.659014,-6957.935855,-77222.426198
408.145444,-3997.112087,-2368.659014,-76303.111601
408.148002,17468.860231,-3552.988522,-71706.538613
408.150561,9918.759623,740.205942,-76149.892501
408.153120,-24722.878463,3404.947333,-79673.931792
408.155678,14656.077652,-1924.535449,-71093.662214
408.158237,26499.372724,-3108.864956,-72625.853210
408.160795,-17764.942608,28719.990550,-78141.740796
408.163354,0.000000,11547.212695,-76456.330700
408.165913,2960.823768,3108.864956,-74004.825107
408.168471,7105.977043,10362.883188,-72012.976812
408.171030,4885.359217,3997.112087,-75077.358804
408.173595,-9178.553681,6069.688724,-76915.987999
408.176161,-7550.100608,3701.029710,-74617.701505
408.178727,14211.954086,-29756.278868,-71400.100414
408.181293,19393.395680,12287.418637,-71400.100414
408.183858,-31088.649564,62473.381505,-79367.493593
408.186424,-16580.613101,17320.819043,-81206.122788
408.188990,29312.155303,-22058.137072,-69255.033019
408.191556,23834.631332,6809.894666,-67876.061123
408.194121,-11251.130318,28719.990550,-76915.987999
408.196687,-10362.883188,-1036.288319,-76609.549800
408.199253,23390.507767,-11843.295072,-70327.566716
408.201819,-1332.370696,3256.906145,-74617.701505
408.204384,-3701.029710,13619.789333,-75537.016103
408.206950,-5921.647536,-3404.947333,-76456.330700
408.209516,-17912.983796,-8586.388927,-79673.931792
408.212082,10362.883188,-7105.977043,-73545.167808
408.214647,6957.935855,296.082377,-72472.634111
408.217213,-5477.523971,14508.036463,-73851.606007
408.219779,21762.054695,-18653.189738,-72472.634111
408.222345,15100.201217,-6069.688724,-72166.195912
408.224910,-5625.565159,-7254.018232,-76762.768900
408.227476,12435.459826,-1184.329507,-73238.729609
408.230042,10214.842000,-22058.137072,-72932.291410
408.232608,1184.329507,-5921.647536,-72932.291410
408.235173,-13915.871710,2960.823768,-77835.302597
408.237739,-14656.077652,-5773.606348,-77988.521696
408.240305,19245.354492,-16580.613101,-71553.319513
408.242871,23982.672521,-16728.654289,-73238.729609
408.245436,-24278.754898,10362.883188,-78601.398095
408.248002,4885.359217,2960.823768,-74464.482406
408.250568,17912.983796,1036.288319,-73391.948708
408.253133,-17616.901420,23094.425390,-76762.768900
408.255699,7846.182985,12731.542202,-74464.482406
408.258265,5477.523971,3701.029710,-74158.044206
408.260831,-148.041188,12731.542202,-74464.482406
408.263396,-1628.453072,5921.647536,-75383.797003
408.265962,592.164754,-1036.288319,-76149.892501
408.268528,8438.347739,-10214.842000,-75843.454302
408.271094,2368.659014,6069.688724,-73545.167808
408.273659,-11991.336260,8586.388927,-76609.549800
408.276231,-13323.706956,13323.706956,-78754.617194
408.278803,-10658.965565,23686.590144,-75077.358804
408.281374,-2516.700203,13915.871710,-75690.235202
408.283946,2220.617826,14359.995275,-72779.072310
408.286518,-1332.370696,15840.407159,-74311.263306
408.289090,0.000000,8438.347739,-75383.797003
408.291661,10658.965565,4589.276840,-72779.072310
408.294233,-2664.741391,-2664.741391,-74464.482406
408.296805,17468.860231,-3552.988522,-71706.538613
408.299376,14804.118840,-9622.677246,-71400.100414
408.301948,-3552.988522,-7994.224174,-77222.426198
408.304520,3552.988522,-1628.453072,-75996.673402
408.307091,3552.988522,-3997.112087,-74004.825107
408.309663,-2220.617826,14211.954086,-72625.853210
408.312235,17468.860231,-11103.089130,-72472.634111
408.314806,16728.654289,-9030.512492,-72166.195912
408.317378,6217.729913,-17764.942608,-74617.701505
408.319950,20725.766376,-9770.718434,-71093.662214
408.322521,9622.677246,13915.871710,-72166.195912
408.325093,8882.471304,-11843.295072,-75537.016103
408.327665,17320.819043,-14656.077652,-72319.415011
408.330237,592.164754,-15692.365970,-74464.482406
408.332808,2072.576638,-1480.411884,-72472.634111
408.335380,33161.226202,-8586.388927,-71859.757712
408.337952,-14508.036463,-4145.153275,-77835.302597
408.340523,-5921.647536,-7254.018232,-75690.235202
408.343095,22354.219448,-7846.182985,-70634.004916
408.345667,-4293.194464,14952.160028,-75383.797003
408.348238,-4885.359217,21169.889941,-76609.549800
408.350810,5329.482782,296.082377,-74924.139704
408.353382,4589.276840,1924.535449,-73238.729609
408.355953,1036.288319,5773.606348,-74770.920605
408.358525,-4885.359217,15100.201217,-76456.330700
